"Time (s)","Acceleration x (m/s^2)","Acceleration y (m/s^2)","Acceleration z (m/s^2)","Absolute acceleration (m/s^2)"
0.000000000E0,2.466027737E-1,3.734954596E-1,9.774328232E0,9.784569698E0
9.283176000E-3,1.807622313E-1,4.632780254E-1,9.801861763E0,9.814468683E0
2.508917600E-2,6.703764945E-2,3.519476354E-1,9.490615845E0,9.497375969E0
3.798867600E-2,5.386953801E-2,4.860229492E-1,9.734824181E0,9.747098135E0
4.948692600E-2,1.077390760E-1,3.292027414E-1,9.852140427E0,9.858227688E0
6.021455100E-2,2.094926536E-1,5.374982953E-1,9.689333916E0,9.706491813E0
7.055536300E-2,1.975216419E-1,5.614402890E-1,9.867702484E0,9.885635150E0
8.077676900E-2,1.723825186E-1,5.554547906E-1,1.000536919E1,1.002225814E1
1.109661250E-1,1.484405100E-1,2.956839204E-1,9.600749016E0,9.606448107E0
1.209791500E-1,1.412578970E-1,3.914519846E-1,1.001973438E1,1.002837303E1
1.309456630E-1,1.292868853E-1,3.651157618E-1,1.023640919E1,1.024373456E1
1.609488610E-1,9.217676520E-2,4.165911078E-1,1.000895977E1,1.001804973E1
1.709685180E-1,1.137245819E-1,4.872200489E-1,1.013944435E1,1.015178055E1
1.809803470E-1,1.903390288E-1,5.063736439E-1,1.008796883E1,1.010246298E1
1.909487610E-1,2.082955539E-1,3.890577853E-1,1.005325317E1,1.006293458E1
2.009429680E-1,2.621650994E-1,3.435679376E-1,9.903614998E0,9.913039871E0
2.309805250E-1,1.879448295E-1,4.752490520E-1,1.008198357E1,1.009492831E1
2.410288500E-1,4.070143029E-2,3.064578176E-1,1.023760605E1,1.024227273E1
2.810022180E-1,2.106897533E-1,4.560954273E-1,9.965864182E0,9.978520035E0
2.909946970E-1,2.202665508E-1,3.268085420E-1,9.964667320E0,9.972457871E0
3.009914360E-1,2.801215947E-1,4.321534038E-1,1.004966164E1,1.006284869E1
3.110388060E-1,2.130839527E-1,4.776432514E-1,1.005445004E1,1.006804417E1
3.209999910E-1,7.422025502E-2,3.926490843E-1,9.989806175E0,9.997795225E0
3.310465830E-1,2.070984542E-1,4.153940082E-1,1.001374817E1,1.002449971E1
3.410208790E-1,7.900865376E-2,4.141969085E-1,9.991003990E0,9.999898108E0
3.509475270E-1,2.035071403E-1,4.704606235E-1,9.731232643E0,9.744723552E0
3.610108510E-1,1.831564307E-1,5.578489900E-1,1.015979481E1,1.017674665E1
3.709950130E-1,2.238578647E-1,3.794809580E-1,1.030703831E1,1.031645079E1
3.810360940E-1,2.070984542E-1,4.369418025E-1,1.012388229E1,1.013542306E1
3.910276350E-1,2.609679997E-1,3.878606856E-1,9.619902611E0,9.631254666E0
4.011999050E-1,2.585737705E-1,4.129997790E-1,9.916783333E0,9.928747196E0
4.111160400E-1,1.951274425E-1,4.572925270E-1,1.013226128E1,1.014445217E1
4.210851080E-1,2.011129409E-1,4.465186298E-1,9.834183693E0,9.846369595E0
4.310656420E-1,2.226607651E-1,5.039794445E-1,9.783905029E0,9.799406651E0
4.410179090E-1,2.633621991E-1,2.394201756E-1,9.704896927E0,9.711421422E0
4.509495420E-1,2.118868530E-1,4.261679053E-1,9.862914085E0,9.874390583E0
4.609468590E-1,1.197100878E-1,3.974374831E-1,1.007599831E1,1.008454406E1
4.709090170E-1,1.508347094E-1,5.829881430E-1,9.848548889E0,9.866941852E0
4.809395960E-1,2.214636505E-1,3.770867586E-1,9.809044838E0,9.818788174E0
4.909403860E-1,2.166752517E-1,3.842693865E-1,9.904812813E0,9.914632014E0
5.009927810E-1,2.777273953E-1,5.063736439E-1,9.761159897E0,9.778230377E0
5.110174780E-1,3.447650373E-1,3.746925592E-1,9.653421402E0,9.666840343E0
5.209658270E-1,3.256114423E-1,4.991910458E-1,9.996989250E0,1.001473957E1
5.310535010E-1,2.753331959E-1,3.878606856E-1,9.858125687E0,9.869594031E0
5.411108380E-1,2.154781520E-1,5.374982953E-1,1.003050804E1,1.004720990E1
5.510115070E-1,1.460463107E-1,3.543418646E-1,9.795876503E0,9.803371060E0
5.609378410E-1,1.675941199E-1,3.184288144E-1,9.595960617E0,9.602705081E0
5.709820080E-1,1.963245422E-1,4.991910458E-1,9.991003990E0,1.000539333E1
5.810460920E-1,2.873041928E-1,4.704606235E-1,9.818621635E0,9.834083980E0
5.909936340E-1,2.873041928E-1,4.070142806E-1,9.719262123E0,9.732022428E0
6.010304050E-1,2.322375625E-1,5.542576909E-1,9.831789017E0,9.850137620E0
6.110452900E-1,2.477998734E-1,4.668693244E-1,9.568427086E0,9.583014590E0
6.209802330E-1,2.825157940E-1,4.393360019E-1,9.900024414E0,9.913794162E0
6.311232040E-1,2.717418969E-1,4.094084799E-1,1.001015759E1,1.002221103E1
6.410026900E-1,2.513911724E-1,3.687070608E-1,9.546878815E0,9.557302837E0
6.510179330E-1,2.525882721E-1,4.249708056E-1,9.646238327E0,9.658898223E0
6.610590540E-1,3.100491166E-1,4.285621047E-1,9.957485199E0,9.971524829E0
6.709956150E-1,2.178723514E-1,6.105214357E-1,9.985017776E0,1.000603742E1
6.810293950E-1,2.202665508E-1,4.932055473E-1,9.956287384E0,9.970929121E0
6.909782850E-1,3.052607179E-1,3.974374831E-1,9.667786598E0,9.680766414E0
7.010812300E-1,2.573766708E-1,4.405331016E-1,9.695320129E0,9.708735478E0
7.110197030E-1,2.801215947E-1,4.165911078E-1,9.832986832E0,9.845793330E0
7.209729390E-1,3.303998411E-1,4.489128292E-1,1.015979481E1,1.017507333E1
7.309120570E-1,2.693476975E-1,5.446808934E-1,9.965864182E0,9.984371505E0
7.409206160E-1,3.411737382E-1,4.596867263E-1,9.876082420E0,9.892659672E0
7.509988960E-1,2.825157940E-1,4.584896266E-1,9.897629738E0,9.912270292E0
7.609400360E-1,2.106897533E-1,4.525041282E-1,9.985017776E0,9.997486192E0
7.709241060E-1,2.849099934E-1,3.699041605E-1,9.866505623E0,9.877547064E0
7.808941410E-1,3.878606856E-1,4.429273009E-1,1.013585281E1,1.015293715E1
7.909676580E-1,3.004723191E-1,4.525041282E-1,1.003529644E1,1.004998598E1
8.010359170E-1,3.351882398E-1,6.260837317E-1,9.944316864E0,9.969642415E0
8.111450460E-1,2.992752194E-1,3.256114423E-1,9.967061996E0,9.976868913E0
8.210276110E-1,2.513911724E-1,4.848258495E-1,1.016338634E1,1.017804871E1
8.309748930E-1,2.741360962E-1,4.477157295E-1,1.004726696E1,1.006097278E1
8.409375340E-1,3.423708379E-1,4.465186298E-1,9.946710587E0,9.962612517E0
8.509818550E-1,2.932897210E-1,4.010287821E-1,9.780313492E0,9.792924739E0
8.609325150E-1,2.992752194E-1,4.716577232E-1,1.009874249E1,1.011417947E1
8.709613450E-1,3.387795389E-1,4.944026470E-1,1.015141487E1,1.016909187E1
8.810647600E-1,2.669534981E-1,5.051765442E-1,9.913191795E0,9.929644459E0
8.909989680E-1,3.016694188E-1,3.711012602E-1,9.938331604E0,9.949831941E0
9.009785720E-1,3.722983599E-1,6.991068721E-1,1.017655468E1,1.020733176E1
9.109178740E-1,3.531447649E-1,2.298433632E-1,9.911994934E0,9.920946667E0
9.210320250E-1,3.088520169E-1,5.829881430E-1,1.017176628E1,1.019313956E1
9.310026000E-1,3.483563364E-1,3.303998411E-1,1.011071396E1,1.012210714E1
9.409508880E-1,2.310404629E-1,4.034229815E-1,9.963470459E0,9.974310672E0
9.509640320E-1,2.980781198E-1,5.817909837E-1,1.001733971E1,1.003864663E1
9.614251040E-1,3.399766386E-1,2.885012925E-1,9.975440979E0,9.985401336E0
9.711606400E-1,3.040636182E-1,7.266402245E-1,1.009994030E1,1.013060979E1
9.810839080E-1,4.477157295E-1,5.446808934E-1,9.771934509E0,9.797337940E0
9.910385420E-1,3.639186621E-1,6.308721304E-1,9.843760490E0,9.870666494E0
1.000942859E0,4.537012279E-1,3.016694188E-1,9.864110947E0,9.879146421E0
1.010986517E0,2.956839204E-1,4.872200489E-1,9.909601212E0,9.925976452E0
1.021050346E0,2.370259613E-1,4.896142483E-1,1.000895977E1,1.002373080E1
1.031005761E0,3.100491166E-1,5.075707436E-1,1.000536919E1,1.002303203E1
1.040992468E0,2.609679997E-1,5.099649429E-1,1.002931118E1,1.004565833E1
1.050962322E0,3.244143426E-1,3.507505357E-1,9.336189270E0,9.348406318E0
1.061042249E0,3.663128614E-1,4.776432514E-1,9.402029991E0,9.421278902E0
1.071011712E0,3.196259141E-1,4.010287821E-1,9.911994934E0,9.925252056E0
1.080970444E0,2.645592988E-1,5.470750928E-1,1.004726696E1,1.006562746E1
1.090960310E0,2.849099934E-1,5.686228871E-1,9.878476143E0,9.898929063E0
1.101062243E0,3.555389643E-1,4.189853072E-1,9.628282547E0,9.643950510E0
1.111160709E0,5.051765442E-1,5.099649429E-1,9.733627319E0,9.760059855E0
1.121185942E0,3.387795389E-1,5.183446407E-1,1.033936024E1,1.035788699E1
1.131083059E0,2.549824715E-1,5.877765417E-1,9.945513725E0,9.966129669E0
1.141093617E0,3.064578176E-1,3.770867586E-1,9.358934402E0,9.371540106E0
1.151093896E0,2.944868207E-1,4.094084799E-1,9.706093788E0,9.719186922E0
1.161097536E0,3.040636182E-1,5.279214978E-1,9.955090523E0,9.973714609E0
1.171012856E0,2.633621991E-1,4.620809257E-1,1.001494598E1,1.002905885E1
1.181005516E0,4.046200812E-1,5.015852451E-1,1.009515190E1,1.011570052E1
1.190970346E0,4.010287821E-1,4.788403511E-1,9.580398560E0,9.600736885E0
1.200954761E0,3.471592367E-1,4.920084476E-1,9.403226852E0,9.422487309E0
1.210970968E0,4.094084799E-1,4.656722248E-1,9.856928825E0,9.876411889E0
1.220951572E0,4.465186298E-1,4.405331016E-1,9.958682060E0,9.978416542E0
1.230925374E0,2.920926213E-1,4.752490520E-1,9.803058624E0,9.818917361E0
1.240916275E0,2.298433632E-1,6.320692301E-1,9.818621635E0,9.841629454E0
1.250984725E0,3.830722570E-1,4.369418025E-1,9.750386238E0,9.767686230E0
1.260963950E0,2.693476975E-1,5.698199868E-1,1.015380955E1,1.017335202E1
1.270965063E0,3.375824392E-1,5.698199868E-1,9.606734276E0,9.629537900E0
1.280986119E0,3.603273630E-1,3.950432837E-1,9.757569313E0,9.772208241E0
1.290959647E0,3.734954596E-1,5.770025849E-1,9.971850395E0,9.995510550E0
1.300907911E0,4.213795066E-1,2.406172752E-1,9.819818497E0,9.831800073E0
1.310930543E0,3.603273630E-1,6.667851806E-1,9.958682060E0,9.987481497E0
1.320961859E0,4.393360019E-1,4.477157295E-1,9.787496567E0,9.807576385E0
1.330952517E0,4.465186298E-1,5.434837937E-1,9.809044838E0,9.834231752E0
1.340909346E0,3.351882398E-1,4.273650050E-1,1.005684471E1,1.007150026E1
1.350902261E0,3.184288144E-1,6.021417379E-1,9.842563629E0,9.866105127E0
1.361022218E0,2.693476975E-1,4.213795066E-1,9.792284966E0,9.805047359E0
1.371007197E0,2.825157940E-1,6.596025825E-1,1.011071396E1,1.013614461E1
1.380963686E0,2.885012925E-1,4.620809257E-1,1.005445004E1,1.006919646E1
1.391029931E0,5.231330991E-1,5.853823423E-1,9.806650162E0,9.838024605E0
1.401034053E0,5.159504414E-1,3.627215624E-1,9.683348656E0,9.703865878E0
1.411091114E0,3.770867586E-1,5.195417404E-1,9.914389610E0,9.935151704E0
1.421044145E0,3.854664862E-1,4.345476031E-1,9.958682060E0,9.975608473E0
1.430963660E0,3.124433160E-1,5.015852451E-1,9.965864182E0,9.983369044E0
1.441021918E0,2.932897210E-1,6.643909812E-1,9.804255486E0,9.831116918E0
1.450974547E0,3.842693865E-1,3.950432837E-1,9.791088104E0,9.806585972E0
1.461036861E0,2.585737705E-1,6.392518282E-1,1.012747288E1,1.015092164E1
1.471083018E0,3.687070608E-1,4.153940082E-1,9.800664902E0,9.816390864E0
1.481016597E0,2.849099934E-1,5.374982953E-1,1.005325317E1,1.007164224E1
1.490962886E0,3.746925592E-1,6.057330370E-1,1.012388229E1,1.014890633E1
1.501238031E0,3.794809580E-1,5.171475410E-1,9.806650162E0,9.827605750E0
1.511042603E0,3.986345828E-1,5.374982953E-1,9.880870819E0,9.903505546E0
1.521070389E0,3.986345828E-1,4.165911078E-1,9.737217903E0,9.754274457E0
1.531152282E0,3.208230138E-1,5.015852451E-1,9.987412453E0,1.000514481E1
1.541032229E0,3.794809580E-1,4.525041282E-1,1.009634876E1,1.011360589E1
1.550990202E0,3.986345828E-1,5.590460896E-1,1.001494598E1,1.003845532E1
1.561025689E0,3.495534360E-1,4.141969085E-1,9.752780914E0,9.767828942E0
1.570988432E0,3.866635859E-1,6.428431273E-1,9.798270226E0,9.826945376E0
1.581015304E0,2.849099934E-1,5.243301988E-1,1.019810200E1,1.021554601E1
1.590960740E0,3.495534360E-1,6.955155730E-1,1.006402683E1,1.009408567E1
1.600974958E0,4.094084799E-1,5.554547906E-1,9.859322548E0,9.883440010E0
1.610974067E0,4.201824069E-1,3.926490843E-1,9.747992516E0,9.764941610E0
1.621026621E0,4.022258818E-1,5.099649429E-1,9.898826599E0,9.920111791E0
1.631007898E0,3.902548850E-1,4.153940082E-1,9.935936928E0,9.952270781E0
1.641007537E0,3.363853395E-1,4.501099288E-1,1.012747288E1,1.014304988E1
1.650967356E0,2.896983922E-1,5.386953950E-1,9.910798073E0,9.929654391E0
1.660943266E0,2.549824715E-1,6.177040339E-1,9.824606895E0,9.847308007E0
1.670934721E0,3.471592367E-1,5.638344884E-1,9.969455719E0,9.991420129E0
1.680901948E0,2.454056740E-1,6.967126727E-1,1.013944435E1,1.016631518E1
1.691528562E0,4.333505034E-1,4.920084476E-1,9.824606895E0,9.846459548E0
1.701284869E0,4.249708056E-1,5.243301988E-1,1.000177765E1,1.002452385E1
1.711098022E0,3.040636182E-1,2.896983922E-1,9.840168953E0,9.849127112E0
1.721020099E0,2.873041928E-1,5.446808934E-1,9.897629738E0,9.916768395E0
1.730990137E0,2.489969730E-1,4.058171809E-1,1.013345909E1,1.014463800E1
1.741038156E0,3.687070608E-1,7.218518257E-1,1.001853657E1,1.005127305E1
1.750954166E0,3.806780577E-1,4.141969085E-1,9.619902611E0,9.636337536E0
1.760913171E0,2.633621991E-1,5.865794420E-1,9.745597839E0,9.766786183E0
1.770959173E0,2.789244950E-1,4.704606235E-1,9.876082420E0,9.891215095E0
1.780945174E0,3.040636182E-1,5.566518903E-1,1.002571964E1,1.004576380E1
1.790937175E0,2.813186944E-1,7.457938194E-1,1.028908157E1,1.031991028E1
1.801327175E0,3.938461840E-1,5.590460896E-1,9.744400978E0,9.768367201E0
1.811139675E0,4.213795066E-1,5.614402890E-1,9.762357712E0,9.787563741E0
1.821027425E0,3.208230138E-1,3.878606856E-1,1.003888798E1,1.005149915E1
1.830954300E0,2.980781198E-1,4.381389022E-1,9.823410034E0,9.837692868E0
1.840935738E0,2.154781520E-1,5.793967843E-1,9.908403397E0,9.927667870E0
1.851065957E0,2.932897210E-1,3.818751574E-1,9.971850395E0,9.983468726E0
1.861109066E0,1.640028208E-1,6.715735793E-1,1.011071396E1,1.013432014E1
1.871159121E0,1.903390288E-1,5.339069963E-1,9.885659218E0,9.901895970E0
1.881149648E0,3.136404157E-1,6.344634295E-1,1.012388229E1,1.014859137E1
1.891108412E0,3.435679376E-1,5.817909837E-1,9.994594574E0,1.001740687E1
1.901099794E0,3.016694188E-1,5.781996846E-1,9.824606895E0,9.846228718E0
1.911006485E0,3.088520169E-1,5.171475410E-1,1.012268448E1,1.014059033E1
1.920968330E0,3.196259141E-1,3.914519846E-1,9.986215591E0,9.998994810E0
1.930916753E0,3.256114423E-1,4.465186298E-1,9.854534149E0,9.870017477E0
1.940997464E0,1.975216419E-1,4.608838260E-1,1.004247856E1,1.005498903E1
1.950967820E0,1.771709323E-1,5.710170865E-1,9.945513725E0,9.963467936E0
1.961016498E0,3.639186621E-1,7.098808289E-1,9.961075783E0,9.992967444E0
1.970998837E0,2.968810201E-1,5.901707411E-1,1.000177765E1,1.002357202E1
1.981018006E0,3.902548850E-1,5.793967843E-1,9.853337288E0,9.878069407E0
1.990964591E0,2.681505978E-1,4.141969085E-1,9.992200851E0,1.000437613E1
2.000911383E0,2.466027737E-1,4.944026470E-1,1.021845245E1,1.023337762E1
2.010877779E0,2.454056740E-1,7.086837292E-1,1.023401546E1,1.026145843E1
2.020966477E0,3.220201433E-1,4.513070285E-1,1.009395409E1,1.010916832E1
2.030956326E0,3.076549172E-1,4.632780254E-1,9.963470459E0,9.978978989E0
2.041039751E0,3.016694188E-1,3.292027414E-1,9.744400978E0,9.754626046E0
2.050995463E0,1.975216419E-1,4.513070285E-1,1.000297451E1,1.001509820E1
2.061011319E0,1.580173075E-1,6.859387755E-1,1.038724422E1,1.041106738E1
2.070946247E0,2.106897533E-1,5.805938840E-1,1.015979481E1,1.017855147E1
2.081093211E0,2.573766708E-1,6.440402865E-1,9.916783333E0,9.941007108E0
2.090986693E0,3.495534360E-1,4.692635238E-1,9.765948296E0,9.783462678E0
2.100947934E0,3.064578176E-1,5.746083856E-1,9.773131371E0,9.794804132E0
2.111006055E0,3.950432837E-1,4.716577232E-1,9.874884605E0,9.894031846E0
2.120999615E0,4.752490520E-1,5.518634915E-1,1.001973438E1,1.004616803E1
2.130950395E0,3.292027414E-1,2.873041928E-1,9.872490883E0,9.882155351E0
2.140942285E0,1.927332431E-1,5.494692922E-1,9.575610161E0,9.593298315E0
2.150906230E0,1.508347094E-1,4.692635238E-1,9.660603523E0,9.673170101E0
2.160896703E0,1.041477770E-1,5.865794420E-1,1.004607010E1,1.006371932E1
2.170900439E0,1.209071875E-1,7.158663273E-1,1.007958889E1,1.010570113E1
2.180877307E0,2.849099934E-1,4.381389022E-1,9.609128952E0,9.623330952E0
2.190896241E0,3.052607179E-1,5.303156972E-1,9.981427193E0,1.000016538E1
2.200967708E0,2.956839204E-1,5.315127969E-1,9.926360130E0,9.944976635E0
2.211153442E0,2.549824715E-1,4.309563041E-1,9.823410034E0,9.836164095E0
2.221113809E0,2.070984542E-1,5.063736439E-1,9.739612579E0,9.754965773E0
2.231223492E0,1.999158412E-1,4.237737060E-1,9.672574997E0,9.683917470E0
2.241067834E0,1.101332754E-1,5.015852451E-1,9.834183693E0,9.847582749E0
2.251048005E0,5.386953801E-2,5.973533392E-1,9.998186111E0,1.001615987E1
2.261062090E0,1.580173075E-1,6.117185354E-1,9.657012939E0,9.677658185E0
2.271040133E0,2.082955539E-1,5.877765417E-1,9.858125687E0,9.877829233E0
2.281104154E0,1.675941199E-1,5.243301988E-1,9.695320129E0,9.710934165E0
2.291209165E0,2.274491638E-1,5.494692922E-1,9.617507935E0,9.635876115E0
2.301053170E0,2.430114746E-1,3.758896589E-1,9.695320129E0,9.705646811E0
2.310977673E0,1.951274425E-1,5.590460896E-1,9.762357712E0,9.780298326E0
2.320989424E0,2.154781520E-1,2.561795712E-1,9.513360023E0,9.519247751E0
2.330944800E0,2.059013397E-1,4.776432514E-1,1.000297451E1,1.001648828E1
2.340995988E0,5.386953801E-2,2.861070931E-1,9.657012939E0,9.661400422E0
2.351018582E0,3.351882473E-2,7.194576263E-1,9.736021042E0,9.762625083E0
2.361049379E0,8.858546615E-2,5.111620426E-1,1.009754562E1,1.011086355E1
2.370981277E0,8.499415964E-2,5.997475386E-1,1.001135445E1,1.002966295E1
2.380929726E0,-1.197100803E-2,5.662286878E-1,9.817423820E0,9.833746423E0
2.390928951E0,1.520318091E-1,5.793967843E-1,9.879673004E0,9.897815566E0
2.400928063E0,2.094926536E-1,5.781996846E-1,1.011789608E1,1.013656861E1
2.410927119E0,1.711854190E-1,3.627215624E-1,9.678560257E0,9.686867400E0
2.421011147E0,1.604115069E-1,3.854664862E-1,9.823410034E0,9.832278523E0
2.430936661E0,1.005564705E-1,3.962403834E-1,9.897629738E0,9.906068467E0
2.440921918E0,5.386953801E-2,4.177882075E-1,9.858125687E0,9.867121716E0
2.450913547E0,-4.788403213E-2,4.596867263E-1,1.002093124E1,1.003158351E1
2.460997861E0,-5.267243832E-2,4.632780254E-1,9.861717224E0,9.872733539E0
2.470971518E0,-8.020575345E-2,5.219359994E-1,9.654618263E0,9.669048762E0
2.481040847E0,-8.020575345E-2,4.548983276E-1,9.983820915E0,9.994500764E0
2.490983011E0,6.464344263E-2,5.446808934E-1,1.012986755E1,1.014470663E1
2.500941593E0,1.197100803E-2,4.632780254E-1,9.789890289E0,9.800853111E0
2.510957884E0,7.302315533E-2,3.986345828E-1,9.640253067E0,9.648767854E0
2.520936030E0,1.113303825E-1,1.987187415E-1,9.909601212E0,9.912218710E0
2.531017103E0,-9.217676520E-2,3.579331636E-1,1.041118622E1,1.041774501E1
2.541019139E0,-1.029506698E-1,5.255272985E-1,1.012388229E1,1.013803583E1
2.550965157E0,-2.513911761E-2,6.356605291E-1,1.005804157E1,1.007813954E1
2.561070166E0,-1.197100803E-2,1.006761789E0,9.945513725E0,9.996347126E0
2.571042171E0,2.274491638E-2,7.625532150E-1,9.520543098E0,9.551059922E0
2.581066673E0,1.795651317E-1,1.376665980E-1,9.475052834E0,9.477754055E0
2.591259924E0,1.316810995E-1,-1.855506301E-1,1.000895977E1,1.001154557E1
2.601228050E0,-2.861070931E-1,4.644751251E-1,1.072123528E1,1.073510504E1
2.611195113E0,-1.460463107E-1,1.179144382E0,1.080383492E1,1.086897235E1
2.621061144E0,2.681505978E-1,6.631938815E-1,1.007719517E1,1.010255380E1
2.631004160E0,8.978256583E-2,4.967968464E-1,8.832210541E0,8.846627100E0
2.640939168E0,7.781155407E-2,-1.999158412E-1,8.225279808E0,8.228076865E0
2.650941672E0,-5.626374111E-2,4.728548229E-1,9.927556992E0,9.938971029E0
2.660909424E0,-2.190694511E-1,6.380547285E-1,1.138921738E1,1.140917954E1
2.670933300E0,-8.619125932E-2,8.283938169E-1,1.079545593E1,1.082753592E1
2.680911738E0,-1.520318091E-1,6.991068721E-1,9.315838814E0,9.343271209E0
2.690919957E0,5.865794048E-2,1.987187415E-1,8.386888504E0,8.389447459E0
2.701020566E0,-4.788403213E-2,5.877765417E-1,9.518148422E0,9.536399925E0
2.710992371E0,5.386953801E-2,5.949591398E-1,1.026394272E1,1.028131307E1
2.720965273E0,4.309562966E-2,5.494692922E-1,1.069011021E1,1.070430894E1
2.730937224E0,-2.513911761E-2,5.770025849E-1,9.725247383E0,9.742381671E0
2.741090700E0,4.788403399E-3,2.262520641E-1,8.670601845E0,8.673554593E0
2.751008938E0,-4.908113554E-2,4.201824069E-1,9.459490776E0,9.468945451E0
2.761069557E0,-1.723825186E-1,5.374982953E-1,1.046505547E1,1.048026746E1
2.770958366E0,-5.506663769E-2,6.991068721E-1,9.829395294E0,9.854379463E0
2.780904271E0,-4.189852998E-2,5.099649429E-1,8.834604263E0,8.849409710E0
2.791025723E0,2.274491638E-2,6.380547285E-1,8.938752174E0,8.961524513E0
2.801046449E0,1.472434103E-1,7.781155705E-1,9.651026726E0,9.683463292E0
2.810987812E0,8.259996027E-2,7.541735172E-1,9.847352028E0,9.876534939E0
2.821111494E0,-1.256955862E-1,7.266402245E-1,9.282320023E0,9.311566485E0
2.830996835E0,-1.412578970E-1,5.374982953E-1,9.144653320E0,9.161525122E0
2.840943505E0,-1.663970202E-1,6.153098345E-1,9.926360130E0,9.946804492E0
2.850986840E0,3.591302549E-3,4.560954273E-1,9.879673004E0,9.890195883E0
2.860957008E0,3.950432688E-2,1.197100878E-1,9.761159897E0,9.761973859E0
2.870988092E0,3.950432688E-2,-1.089361757E-1,9.737217903E0,9.737907382E0
2.881032634E0,-2.406172752E-1,-1.532289088E-1,1.008677197E1,1.009080495E1
2.890960405E0,-5.303156972E-1,3.926490843E-1,1.010472870E1,1.012625055E1
2.901002790E0,-2.130839527E-1,7.326257229E-1,1.024478912E1,1.027316161E1
2.911011483E0,4.788403399E-3,9.301473498E-1,1.046266174E1,1.050392725E1
2.921024329E0,1.209071875E-1,8.427590132E-1,9.597157478E0,9.634847843E0
2.930976252E0,1.903390288E-1,6.643909812E-1,9.534908295E0,9.559922620E0
2.940969214E0,1.819593310E-1,7.098808289E-1,1.094629002E1,1.097079328E1
2.950967695E0,1.077390742E-2,7.948749661E-1,1.071165848E1,1.074111585E1
2.960965935E0,-6.703764945E-2,5.817909837E-1,9.350554466E0,9.368876327E0
2.970950555E0,2.154781483E-2,4.070143029E-2,9.111134529E0,9.111250920E0
2.980929865E0,-5.985504016E-3,7.541735470E-2,9.819818497E0,9.820109924E0
2.990961520E0,1.556231081E-2,-5.386953801E-2,9.649829865E0,9.649992773E0
3.000930348E0,-1.221042871E-1,4.369418025E-1,1.045667553E1,1.046651283E1
3.011152262E0,-2.394201756E-1,7.972691655E-1,1.055364132E1,1.058642079E1
3.021011719E0,-2.166752517E-1,6.189011335E-1,1.000297451E1,1.002444441E1
3.030928447E0,-1.915361285E-1,7.984662652E-1,1.057040024E1,1.060224484E1
3.040905811E0,-2.932897210E-1,9.636662006E-1,1.066616821E1,1.071362757E1
3.050940493E0,-1.077390742E-2,7.589619160E-1,1.088882923E1,1.091525269E1
3.061037334E0,6.344634295E-2,5.351040959E-1,1.043393135E1,1.044783639E1
3.070958755E0,-3.351882473E-2,6.416460276E-1,9.830592155E0,9.851567148E0
3.081399965E0,8.379705995E-2,7.900865376E-2,9.609128952E0,9.609819121E0
3.091160070E0,-5.985504016E-3,4.620809257E-1,1.006402683E1,1.007463105E1
3.101025123E0,-2.154781520E-1,2.801215947E-1,1.013465595E1,1.014081605E1
3.110923149E0,-2.896983922E-1,5.195417404E-1,1.014303589E1,1.016046386E1
3.120880162E0,-2.202665508E-1,7.218518257E-1,9.958682060E0,9.987238647E0
3.130916669E0,-4.189852998E-2,4.513070285E-1,9.890447617E0,9.900827621E0
3.140969422E0,-1.053448766E-1,7.721300721E-1,1.050336266E1,1.053223193E1
3.150905799E0,1.364694983E-1,3.172317147E-1,1.029267311E1,1.029846492E1
3.160903987E0,8.499415964E-2,4.201824069E-1,1.010712242E1,1.011620981E1
3.170900581E0,-4.668693244E-2,3.711012602E-1,9.664195061E0,9.671430193E0
3.180918378E0,-5.267243832E-2,4.129997790E-1,9.683348656E0,9.692295104E0
3.190903277E0,-1.891419291E-1,5.650315881E-1,1.050455952E1,1.052144505E1
3.200909226E0,-1.891419291E-1,6.356605291E-1,1.029985619E1,1.032118581E1
3.210879701E0,-2.406172752E-1,7.422025204E-1,9.786299706E0,9.817353166E0
3.220908938E0,-1.675941199E-1,7.074866295E-1,9.964667320E0,9.991157086E0
3.230936557E0,-1.256955862E-1,8.104372621E-1,1.057878017E1,1.061052298E1
3.240897366E0,-2.741360962E-1,7.625532150E-1,1.054047298E1,1.057157551E1
3.251006771E0,-4.788403213E-2,4.824316502E-1,9.902418137E0,9.914278498E0
3.260957973E0,-9.816227108E-2,3.124433160E-1,9.610325813E0,9.615904476E0
3.270924574E0,-1.628057212E-1,1.915361285E-1,9.593565941E0,9.596858822E0
3.281008875E0,-1.831564307E-1,2.992752194E-1,9.981427193E0,9.987592339E0
3.290975025E0,-5.626374111E-2,3.327940404E-1,1.012867069E1,1.013429265E1
3.300990600E0,-8.379705995E-2,4.429273009E-1,9.591172218E0,9.601759790E0
3.310939888E0,-6.464344263E-2,5.734112859E-1,9.338583946E0,9.356395107E0
3.320910532E0,-6.344634295E-2,7.326257229E-1,1.013944435E1,1.016607582E1
3.330875354E0,-5.985504016E-3,7.326257229E-1,9.787496567E0,9.814879791E0
3.340881765E0,2.873042040E-2,6.679822803E-1,9.771934509E0,9.794780744E0
3.350916970E0,-4.788403213E-2,5.267243981E-1,1.000656605E1,1.002053370E1
3.360905073E0,-1.065419763E-1,3.782838583E-1,9.945513725E0,9.953275498E0
3.370905124E0,-1.963245422E-1,4.836287498E-1,1.011909389E1,1.013254664E1
3.381108650E0,-1.197100803E-2,2.908954918E-1,9.611522675E0,9.615931136E0
3.391023913E0,-1.795651317E-1,4.668693244E-1,9.973047256E0,9.985583718E0
3.401131044E0,-1.963245422E-1,3.184288144E-1,1.018493366E1,1.019180131E1
3.410991110E0,-3.315969408E-1,7.637503147E-1,1.043632507E1,1.046948672E1
3.420969143E0,-3.148375154E-1,8.942343593E-1,1.012388229E1,1.016817439E1
3.431816659E0,-2.154781520E-1,6.643909812E-1,9.613917351E0,9.639255834E0
3.442852917E0,-1.879448295E-1,6.260837317E-1,9.794678688E0,9.816467527E0
3.451853046E0,-2.394201756E-1,3.244143426E-1,9.678560257E0,9.686954905E0
3.461345611E0,-2.418143749E-1,4.788403511E-1,9.605537415E0,9.620504732E0
3.471124393E0,-2.154781483E-2,4.082113802E-1,9.548076630E0,9.556823121E0
3.481065284E0,-8.379705995E-2,3.064578176E-1,9.816226959E0,9.821367016E0
3.490958230E0,-2.442085743E-1,3.375824392E-1,9.521739960E0,9.530851567E0
3.501014203E0,-1.005564705E-1,5.458779931E-1,9.469067574E0,9.485322087E0
3.510977189E0,-5.267243832E-2,7.589619160E-1,9.568427086E0,9.598624614E0
3.521119182E0,-5.506663769E-2,9.325415492E-1,9.437943459E0,9.484062568E0
3.530993679E0,-1.173158810E-1,5.315127969E-1,9.743204117E0,9.758396145E0
3.541025427E0,-1.364694983E-1,8.846575022E-1,1.055603504E1,1.059391895E1
3.550949801E0,-1.544260085E-1,9.864110947E-1,1.044709873E1,1.049469991E1
3.560934488E0,-1.903390288E-1,8.511387110E-1,9.841365814E0,9.879936596E0
3.570891832E0,-1.113303825E-1,4.273650050E-1,9.494206429E0,9.504472158E0
3.580899504E0,-8.140286058E-2,3.591302633E-1,9.859322548E0,9.866196941E0
3.590921840E0,-4.788403399E-3,2.166752517E-1,1.032858658E1,1.033086017E1
3.601133008E0,-2.370259613E-1,5.099649429E-1,9.384073257E0,9.400908278E0
3.611004592E0,-1.292868853E-1,7.038952708E-1,9.153033257E0,9.180969526E0
3.620927884E0,-1.089361757E-1,6.009446383E-1,9.637859344E0,9.657190808E0
3.630893030E0,-2.525882721E-1,6.967126727E-1,1.002811337E1,1.005545956E1
3.641267603E0,-2.525882721E-1,5.434837937E-1,1.022443867E1,1.024198816E1
3.651164389E0,-1.101332754E-1,6.739677787E-1,9.633070946E0,9.657246903E0
3.661013782E0,-1.292868853E-1,5.099649429E-1,9.477447510E0,9.492038276E0
3.671011979E0,-9.457096457E-2,5.171475410E-1,9.579200745E0,9.593616219E0
3.681378577E0,-2.466027737E-1,5.817909837E-1,9.841365814E0,9.861631445E0
3.691139876E0,-2.549824715E-1,4.908113480E-1,9.956287384E0,9.971638296E0
3.701014026E0,-1.244984865E-1,3.100491166E-1,9.941922188E0,9.947534726E0
3.710982601E0,-9.217676520E-2,5.650315881E-1,9.876082420E0,9.892661989E0
3.721016888E0,-5.626374111E-2,6.691793799E-1,9.782708168E0,9.805730251E0
3.731022032E0,-2.394201756E-1,6.691793799E-1,1.048780060E1,1.051185447E1
3.740991604E0,-1.747767180E-1,6.033388376E-1,1.035013390E1,1.036917722E1
3.750925390E0,-2.023100406E-1,7.386112213E-1,1.021965027E1,1.024830364E1
3.761259783E0,-1.975216419E-1,7.098808289E-1,1.019690514E1,1.022349353E1
3.771068479E0,-2.142810524E-1,6.739677787E-1,1.022084713E1,1.024528501E1
3.780984327E0,-1.065419763E-1,5.195417404E-1,9.935936928E0,9.950081278E0
3.790957251E0,-5.865794048E-2,5.781996846E-1,9.836577415E0,9.853730810E0
3.800944213E0,-2.513911761E-2,3.974374831E-1,1.030464458E1,1.031233672E1
3.810927694E0,-1.711854190E-1,7.433996201E-1,1.059673691E1,1.062416023E1
3.820895435E0,-9.337386489E-2,4.776432514E-1,9.737217903E0,9.749373018E0
3.830876305E0,-1.819593310E-1,6.153098345E-1,9.877279282E0,9.898098878E0
3.841352740E0,-2.621650994E-1,3.663128614E-1,1.018852520E1,1.019847839E1
3.851144958E0,-2.226607651E-1,5.099649429E-1,1.016218948E1,1.017741309E1
3.861028067E0,-3.064578176E-1,6.536170840E-1,1.008198357E1,1.010779523E1
3.870943121E0,-2.609679997E-1,5.793967843E-1,9.883264542E0,9.903672194E0
3.881053148E0,-1.999158412E-1,4.357447028E-1,1.025556278E1,1.026676228E1
3.891035162E0,-2.346317619E-1,4.620809257E-1,9.805453300E0,9.819138724E0
3.901079669E0,-1.101332754E-1,5.542576909E-1,1.009515190E1,1.011095558E1
3.910978922E0,9.576806799E-3,6.129156351E-1,1.031062984E1,1.032883561E1
3.921231549E0,-9.457096457E-2,6.536170840E-1,1.013345909E1,1.015495702E1
3.931075362E0,-7.422025502E-2,6.452373862E-1,9.542090416E0,9.564169041E0
3.940955769E0,-1.675941199E-1,7.613561153E-1,9.411606789E0,9.443838905E0
3.950908472E0,-5.985504389E-2,6.607996821E-1,1.021246719E1,1.023399849E1
3.960909824E0,-2.394201756E-1,7.003039718E-1,9.617507935E0,9.645942491E0
3.970989500E0,-1.831564307E-1,7.374141216E-1,9.683348656E0,9.713113149E0
3.981020338E0,9.576806799E-3,4.058171809E-1,1.009395409E1,1.010211307E1
3.990953257E0,-1.436521020E-2,3.016694188E-1,1.010233402E1,1.010684736E1
4.000928216E0,-1.065419763E-1,2.082955539E-1,9.581595421E0,9.584451421E0
4.010914196E0,-1.807622313E-1,7.038952708E-1,9.878476143E0,9.905172106E0
4.020898186E0,-8.379706182E-3,1.004367590E0,9.913191795E0,9.963944803E0
4.030909181E0,-1.412578970E-1,6.979097724E-1,9.502586365E0,9.529227643E0
4.040876178E0,-6.703764945E-2,2.681505978E-1,9.673771858E0,9.677719812E0
4.050881177E0,-1.376665980E-1,4.273650050E-1,9.534908295E0,9.545473751E0
4.060868676E0,-2.118868530E-1,8.667010069E-1,9.967061996E0,1.000691718E1
4.070898926E0,-2.430114746E-1,1.215057373E0,1.003290176E1,1.010913136E1
4.080918551E0,-5.386953801E-2,7.493851185E-1,9.537302017E0,9.566849521E0
4.090896363E0,8.020575345E-2,1.400607973E-1,9.340977669E0,9.342371958E0
4.100939269E0,-8.259996027E-2,3.495534360E-1,9.281123161E0,9.288070709E0
4.110896722E0,-1.292868853E-1,5.219359994E-1,9.070432663E0,9.086356860E0
4.120876949E0,-4.548983276E-2,8.619126081E-1,9.607931137E0,9.646621347E0
4.130948062E0,-1.005564705E-1,8.726865053E-1,9.854534149E0,9.893610900E0
4.140937119E0,-2.932897210E-1,5.518634915E-1,8.877699852E0,8.899670041E0
4.150910147E0,-1.436520964E-1,8.271966577E-1,1.010472870E1,1.013954793E1
4.160890661E0,-5.746084079E-2,1.195903778E0,1.023640919E1,1.030619040E1
4.170905918E0,3.711012751E-2,5.231330991E-1,9.512163162E0,9.526609755E0
4.180910047E0,-2.082955539E-1,3.399766386E-1,9.175778389E0,9.184436847E0
4.190904611E0,-8.738835901E-2,1.903390288E-1,9.647436142E0,9.649709311E0
4.200889893E0,-1.604115069E-1,8.463503122E-1,9.831789017E0,9.869453682E0
4.210938034E0,-2.130839527E-1,9.121908545E-1,9.453505516E0,9.499803338E0
4.220992105E0,-1.867477298E-1,9.624691010E-1,9.803058624E0,9.851963250E0
4.231047140E0,7.182604820E-2,7.146692276E-1,9.337387085E0,9.364972432E0
4.241067158E0,-1.795651205E-2,5.662286878E-1,8.872911453E0,8.890978294E0
4.251055667E0,-2.070984542E-1,9.684545994E-1,9.592369080E0,9.643357229E0
4.261088421E0,-2.513911761E-2,8.690952063E-1,9.977835655E0,1.001564590E1
4.271086298E0,-1.592144072E-1,8.331822157E-1,9.502586365E0,9.540371557E0
4.281156737E0,-2.047042400E-1,2.597708702E-1,8.779537201E0,8.785764520E0
4.291183456E0,-1.651999205E-1,5.039794445E-1,9.898826599E0,9.913024480E0
4.301114816E0,-1.687912196E-1,6.560112834E-1,9.844957352E0,9.868233202E0
4.311131996E0,-6.943184882E-2,9.864110947E-1,9.378087997E0,9.430077524E0
4.321060086E0,-3.100491166E-1,9.062053561E-1,9.701305389E0,9.748469873E0
4.330984631E0,-4.094084799E-1,7.984662652E-1,9.773131371E0,9.814237641E0
4.340995403E0,-1.975216419E-1,9.421183467E-1,9.786299706E0,9.833527531E0
4.350972789E0,-1.520318091E-1,1.040280581E0,9.714473724E0,9.771197322E0
4.360934982E0,-3.519476354E-1,1.024718285E0,9.725247383E0,9.785415237E0
4.370994079E0,-1.221042871E-1,8.690952063E-1,9.412803650E0,9.453629382E0
4.381634127E0,5.267243832E-2,9.445125461E-1,9.402029991E0,9.449499790E0
4.391299651E0,-1.999158412E-1,5.566518903E-1,9.427168846E0,9.445704851E0
4.401115913E0,-4.201824069E-1,6.428431273E-1,9.970652580E0,1.000018567E1
4.411174044E0,-2.334346622E-1,4.405331016E-1,1.003050804E1,1.004289066E1
4.421025110E0,-3.519476354E-1,3.423708379E-1,9.981427193E0,9.993496572E0
4.430992143E0,-9.457096457E-2,5.470750928E-1,1.046385860E1,1.047857680E1
4.440944159E0,-2.561795712E-1,1.222239971E0,1.038006115E1,1.045491119E1
4.450910667E0,1.125274822E-1,1.157596469E0,1.009275723E1,1.015954922E1
4.461032421E0,-2.992752194E-2,1.256955862E0,9.812635422E0,9.892858415E0
4.471193798E0,4.070143029E-2,9.600749016E-1,9.751583099E0,9.798814896E0
4.481047487E0,-1.867477298E-1,8.714894056E-1,9.953893661E0,9.993716402E0
4.490960831E0,-4.716577232E-1,5.973533392E-1,9.605537415E0,9.635644298E0
4.501052503E0,-4.644751251E-1,7.996633649E-1,1.008557510E1,1.012788348E1
4.510975339E0,-2.190694511E-1,6.141127348E-1,1.025915432E1,1.027985278E1
4.520982757E0,-4.225766063E-1,6.344634295E-1,1.022204399E1,1.025042917E1
4.530950966E0,-3.327940404E-1,4.501099288E-1,1.018493366E1,1.020030512E1
4.540891571E0,-2.825157940E-1,9.277531505E-1,1.034893703E1,1.039427914E1
4.550905873E0,-3.220201433E-1,9.181763530E-1,1.005564690E1,1.010261250E1
4.560934524E0,-5.351040959E-1,1.072602391E0,1.034654236E1,1.041574534E1
4.570908850E0,-4.357447028E-1,1.203086376E0,1.077630138E1,1.085200266E1
4.580993513E0,-1.771709323E-1,1.120486379E0,1.058117485E1,1.064181096E1
4.590950844E0,-1.987187415E-1,1.037886381E0,1.043991661E1,1.049326242E1
4.600926010E0,-1.209071875E-1,8.020575643E-1,1.053688145E1,1.056805495E1
4.610891593E0,-7.661445439E-2,8.846575022E-1,1.035252857E1,1.039054072E1
4.621038384E0,-3.220201433E-1,8.367735147E-1,9.560047150E0,9.601999187E0
4.631473780E0,-3.591302633E-1,7.841010690E-1,1.005325317E1,1.009017782E1
4.641238478E0,-3.663128614E-1,8.774749041E-1,1.006282997E1,1.010765524E1
4.651097327E0,-2.585737705E-1,8.786720037E-1,9.627084732E0,9.670557653E0
4.660993751E0,-2.753331959E-1,8.595184088E-1,9.961075783E0,1.000188037E1
4.670967963E0,-2.681505978E-1,1.065419793E0,1.050695419E1,1.056423734E1
4.680960069E0,-1.951274425E-1,9.289502501E-1,1.026753426E1,1.031131820E1
4.691094622E0,-3.363853395E-1,1.101332784E0,1.024359226E1,1.030811677E1
4.701045899E0,-1.963245422E-1,8.164227605E-1,1.007120991E1,1.010615448E1
4.710989537E0,-3.579331636E-1,6.799532771E-1,9.852140427E0,9.882060696E0
4.721106356E0,-2.513911724E-1,9.732429981E-1,1.035611916E1,1.040478752E1
4.731224766E0,-2.896983922E-1,8.092401624E-1,9.858125687E0,9.895526103E0
4.741061471E0,-3.447650373E-1,1.291671872E0,1.025915432E1,1.034589419E1
4.750985323E0,-3.004723191E-1,9.636662006E-1,1.034534550E1,1.039447496E1
4.760972249E0,-2.753331959E-1,1.233013868E0,1.021725559E1,1.029506889E1
4.771034212E0,-3.280056417E-1,1.118092179E0,9.847352028E0,9.916050614E0
4.780981694E0,-1.209071875E-1,9.564836025E-1,1.015500641E1,1.020066834E1
4.790953935E0,-2.106897533E-1,9.445125461E-1,1.006163311E1,1.010806386E1
4.800986555E0,-2.106897533E-1,8.403648138E-1,9.763554573E0,9.801918235E0
4.810956365E0,-2.873042040E-2,8.331822157E-1,9.840168953E0,9.875421159E0
4.820977770E0,-2.621650994E-1,8.236053586E-1,9.895236015E0,9.932912570E0
4.830993973E0,-2.154781520E-1,9.193734527E-1,9.526528358E0,9.573213721E0
4.840930074E0,-2.741360962E-1,9.840168953E-1,9.882067680E0,9.934722014E0
4.850977625E0,-4.357447028E-1,1.181538582E0,9.878476143E0,9.958423458E0
4.861018900E0,-2.609679997E-1,1.264138460E0,9.914389610E0,9.998063397E0
4.871089038E0,-9.696517140E-2,1.246181965E0,9.739612579E0,9.819492091E0
4.881128607E0,-4.034229815E-1,1.097741485E0,9.615114212E0,9.685979960E0
4.891024391E0,-1.292868853E-1,1.013944387E0,9.770736694E0,9.824056895E0
4.900991783E0,-8.499415964E-2,1.036689281E0,9.616311073E0,9.672403390E0
4.910988979E0,-2.047042400E-1,8.786720037E-1,9.595960617E0,9.638279332E0
4.920976077E0,-2.394201756E-1,9.349357486E-1,9.771934509E0,9.819477121E0
4.931391626E0,-1.496376097E-1,7.960720658E-1,9.939528465E0,9.972479544E0
4.941206401E0,-2.561795712E-1,1.146822572E0,1.004247856E1,1.011099430E1
4.951061788E0,-7.302315533E-2,9.804255962E-1,1.003170490E1,1.007976537E1
4.961098982E0,-7.781155407E-2,1.137245774E0,9.870096207E0,9.935702377E0
4.971017079E0,-4.094084799E-1,1.005564690E0,9.781511307E0,9.841582144E0
4.981062127E0,-2.035071403E-1,1.064222693E0,1.001973438E1,1.007814776E1
4.990995151E0,-3.184288144E-1,1.080982089E0,9.756371498E0,9.821237396E0
5.000965163E0,-4.309562966E-2,9.995791912E-1,9.846154213E0,9.896856500E0
5.010981669E0,-1.029506698E-1,9.600749016E-1,9.713275909E0,9.761151139E0
5.020965422E0,-2.573766708E-1,7.302315235E-1,9.515754700E0,9.547202121E0
5.031242299E0,-1.544260085E-1,1.053448796E0,1.000297451E1,1.005947816E1
5.041205237E0,-2.896983922E-1,1.279700756E0,9.878476143E0,9.965232064E0
5.051098706E0,-1.005564705E-1,1.151610970E0,9.659406662E0,9.728332668E0
5.061093941E0,-7.661445439E-2,1.155202270E0,1.022802925E1,1.029334467E1
5.071004058E0,-9.935937077E-2,1.274912357E0,9.995792389E0,1.007725852E1
5.080944617E0,-1.101332754E-1,1.028309584E0,9.425971985E0,9.482536464E0
5.090902896E0,-2.669534981E-1,1.185129881E0,1.040400314E1,1.047468751E1
5.100959036E0,-6.105214357E-2,1.155202270E0,1.031541824E1,1.038008060E1
5.111079606E0,-1.580173075E-1,8.499416113E-1,9.769539833E0,9.807715267E0
5.121010891E0,-2.669534981E-1,1.000776291E0,1.058716011E1,1.063770542E1
5.130988033E0,-5.386953801E-2,9.481038451E-1,1.019690514E1,1.024102911E1
5.140953604E0,-1.484405100E-1,1.029506683E0,9.769539833E0,9.824755831E0
5.151029890E0,-4.106055796E-1,1.067813993E0,1.027830791E1,1.034178115E1
5.161013033E0,-3.591302549E-3,1.339555860E0,1.020767879E1,1.029519933E1
5.170975604E0,-1.376665980E-1,1.256955862E0,9.332598686E0,9.417870692E0
5.181035890E0,-8.140286058E-2,1.338358760E0,9.821015358E0,9.912122540E0
5.190953033E0,-2.992752194E-2,1.047463298E0,9.670180321E0,9.726790964E0
5.200927604E0,-8.259996027E-2,1.080982089E0,9.504981041E0,9.566609097E0
5.210889890E0,-2.585737705E-1,1.067813993E0,9.803058624E0,9.864433360E0
5.220966533E0,-2.549824715E-1,8.104372621E-1,9.734824181E0,9.771828204E0
5.230928354E0,-2.525882721E-1,1.041477680E0,9.916783333E0,9.974520954E0
5.240894765E0,-3.268085420E-1,1.194706678E0,9.495404243E0,9.575846157E0
5.250938970E0,8.140286058E-2,1.179144382E0,9.706093788E0,9.777794461E0
5.261057573E0,-9.576806426E-2,1.244984865E0,9.603142738E0,9.683982099E0
5.270985874E0,4.668693244E-2,1.110909581E0,9.908403397E0,9.970594648E0
5.281087525E0,-1.628057212E-1,1.374271750E0,1.029267311E1,1.038529000E1
5.290997350E0,-2.070984542E-1,1.043871999E0,1.005564690E1,1.011180464E1
5.301036263E0,-6.943184882E-2,1.236605167E0,1.010712242E1,1.018272737E1
5.310997219E0,-1.867477298E-1,6.177040339E-1,9.800664902E0,9.821887064E0
5.321064197E0,-4.788403399E-3,1.205480576E0,1.015380955E1,1.022511881E1
5.330978686E0,-3.172317147E-1,9.864110947E-1,9.673771858E0,9.729106062E0
5.341063431E0,4.548983276E-2,1.631648421E0,1.000776291E1,1.014000317E1
5.350989803E0,-8.140286058E-2,1.355118155E0,9.680954933E0,9.775676962E0
5.361068989E0,-3.591302410E-2,8.248024583E-1,8.968679428E0,9.006597555E0
5.370988582E0,1.173158810E-1,7.074866295E-1,9.564835548E0,9.591682825E0
5.381073379E0,-7.062894851E-2,1.262941360E0,1.011430550E1,1.019309497E1
5.391075277E0,5.267243832E-2,1.250970364E0,9.765948296E0,9.845884793E0
5.400987226E0,4.788403213E-2,1.301248670E0,1.005684471E1,1.014079220E1
5.410918701E0,2.154781483E-2,7.194576263E-1,9.651026726E0,9.677830358E0
5.450989958E0,-2.753331885E-2,1.393425345E0,1.033576870E1,1.042930999E1
5.461008067E0,-2.885012925E-1,1.059434295E0,9.945513725E0,1.000594210E1
5.470991621E0,-2.394201700E-3,9.935936928E-1,1.004367638E1,1.009270377E1
5.480972398E0,-2.430114746E-1,1.335964561E0,1.009275723E1,1.018369306E1
5.490940787E0,6.943184882E-2,1.131260276E0,9.969455719E0,1.003367420E1
5.501083481E0,-1.316810958E-2,1.279700756E0,1.063145256E1,1.070820204E1
5.510968328E0,-1.987187415E-1,9.193734527E-1,1.018732834E1,1.023065958E1
5.520999252E0,-2.394201700E-3,8.655039072E-1,9.810241699E0,9.848347320E0
5.530975214E0,-1.592144072E-1,8.307880163E-1,1.041118622E1,1.044549455E1
5.541087195E0,-2.214636505E-1,1.290474772E0,1.008198357E1,1.016664959E1
5.551037185E0,-7.302315533E-2,9.145850539E-1,1.022683239E1,1.026790626E1
5.560956180E0,-1.376665980E-1,7.972691655E-1,1.039083576E1,1.042228660E1
5.570942178E0,-2.035071515E-2,1.265335560E0,1.014662647E1,1.022523921E1
5.581662677E0,-5.746084079E-2,1.155202270E0,9.914389610E0,9.981628894E0
5.591296426E0,-1.280897856E-1,1.329979062E0,1.028549004E1,1.037191191E1
5.601090301E0,-4.429273307E-2,6.141127348E-1,9.554061890E0,9.573880869E0
5.610986738E0,-2.082955539E-1,8.271966577E-1,1.005445004E1,1.009057019E1
5.621050957E0,-2.980781198E-1,1.060631394E0,1.018134308E1,1.024077812E1
5.630954566E0,-5.985504389E-2,1.261744261E0,1.011550236E1,1.019406539E1
5.640946871E0,-2.118868530E-1,1.243787766E0,9.926360130E0,1.000622454E1
5.650934023E0,-1.460463107E-1,1.199495077E0,1.000297451E1,1.007569437E1
5.661058099E0,-7.900865376E-2,1.082179189E0,9.879673004E0,9.939079074E0
5.670994137E0,-5.985504389E-2,1.443703651E0,9.866505623E0,9.971749900E0
5.680964156E0,-3.232172132E-2,1.077390790E0,9.898826599E0,9.957338181E0
5.690969666E0,-1.304839998E-1,1.420958757E0,1.005684471E1,1.015757232E1
5.700956421E0,-5.985504016E-3,8.248024583E-1,9.391256332E0,9.427408468E0
5.710980298E0,-1.053448766E-1,1.203086376E0,9.914389610E0,9.987674190E0
5.720911237E0,-2.142810524E-1,1.259350061E0,9.835380554E0,9.917993224E0
5.731072206E0,1.221042871E-1,1.145625472E0,9.485827446E0,9.555537113E0
5.741045691E0,-3.806780577E-1,1.237802267E0,9.278728485E0,9.368664394E0
5.750962433E0,-1.005564705E-1,8.643068075E-1,9.406818390E0,9.446976769E0
5.760978804E0,-3.100491166E-1,1.277306557E0,9.521739960E0,9.612032790E0
5.771019990E0,-4.058171809E-1,1.241393566E0,9.311050415E0,9.402202157E0
5.780951583E0,-2.968810201E-1,1.133654475E0,9.414001465E0,9.486660866E0
5.790949879E0,-3.375824392E-1,1.267729759E0,9.903614998E0,9.990129662E0
5.800952027E0,-1.197100878E-1,9.385270476E-1,9.032125473E0,9.081544697E0
5.810913101E0,-2.250549644E-1,1.015141487E0,9.199720383E0,9.258294503E0
5.821018138E0,-7.661445439E-2,1.131260276E0,9.435548782E0,9.503430981E0
5.831053157E0,-1.532289088E-1,1.185129881E0,9.203310966E0,9.280568123E0
5.841014166E0,-5.865794048E-2,9.229647517E-1,9.279925346E0,9.325895084E0
5.850965671E0,-1.364694983E-1,1.060631394E0,9.609128952E0,9.668449829E0
5.860984423E0,-3.112462163E-1,1.085770488E0,9.551667213E0,9.618218043E0
5.871070299E0,-2.262520641E-1,1.074996591E0,9.703699112E0,9.765684007E0
5.880971237E0,-3.040636182E-1,1.201889277E0,9.789890289E0,9.868077036E0
5.891029206E0,-2.777273953E-1,9.983820915E-1,9.654618263E0,9.710074825E0
5.900989191E0,-3.351882398E-1,1.285686255E0,9.844957352E0,9.934209861E0
5.911036683E0,-2.908954918E-1,1.131260276E0,9.441534042E0,9.513513288E0
5.921036929E0,-2.178723514E-1,1.148019671E0,9.794678688E0,9.864134434E0
5.930960552E0,-1.999158412E-1,1.278503656E0,9.909601212E0,9.993734743E0
5.940945364E0,-8.259996027E-2,1.017535686E0,9.543288231E0,9.597736811E0
5.951002270E0,-2.825157940E-1,1.225831270E0,9.835380554E0,9.915502414E0
5.961020723E0,-3.615244627E-1,9.648633003E-1,9.684545517E0,9.739203407E0
5.971191949E0,-2.238578647E-1,1.136048675E0,9.910798073E0,9.978208124E0
5.981118562E0,-3.615244627E-1,1.121683478E0,1.002212811E1,1.009118058E1
5.991129869E0,-1.879448295E-1,9.504981041E-1,9.897629738E0,9.944940640E0
6.001096522E0,-2.250549644E-1,1.217451572E0,1.024239445E1,1.031695120E1
6.011000849E0,-2.693476975E-1,1.119289279E0,9.981427193E0,1.004759899E1
6.020990012E0,-1.017535701E-1,1.021126986E0,9.947908401E0,1.000069676E1
6.031326594E0,-9.576806799E-3,1.154005170E0,1.015979481E1,1.022512837E1
6.041219385E0,-6.823474914E-2,1.033097982E0,9.836577415E0,9.890915159E0
6.051118280E0,-8.619125932E-2,1.155202270E0,9.922768593E0,9.990158045E0
6.061009728E0,-2.873041928E-1,1.094150186E0,1.002811337E1,1.009171769E1
6.071035952E0,-1.879448295E-1,1.223437071E0,1.003409958E1,1.011015707E1
6.080952564E0,-5.267243981E-1,1.318008065E0,1.007001209E1,1.016954903E1
6.090932870E0,-3.100491166E-1,1.276109457E0,1.042794514E1,1.051031044E1
6.100927523E0,-2.968810201E-1,1.076193690E0,1.008677197E1,1.014836439E1
6.111032349E0,-1.604115069E-1,9.995791912E-1,1.034534550E1,1.039476137E1
6.121100262E0,-1.903390288E-1,9.265560508E-1,1.033098030E1,1.037419342E1
6.131017219E0,-7.781155407E-2,1.227028370E0,1.029147625E1,1.036465806E1
6.140974697E0,2.992752194E-2,1.134851575E0,1.026035118E1,1.032296421E1
6.151014436E0,-3.351882398E-1,1.104924083E0,9.866505623E0,9.933838210E0
6.160969306E0,-2.082955539E-1,1.193509579E0,1.004128170E1,1.011410848E1
6.170969241E0,-2.250549644E-1,1.375468850E0,1.005445004E1,1.015059258E1
6.180930208E0,-3.615244627E-1,1.304839969E0,1.014662647E1,1.023656857E1
6.190899192E0,-1.807622313E-1,1.401805043E0,1.052131939E1,1.061583224E1
6.200932184E0,-1.604115069E-1,1.219845772E0,1.012148762E1,1.019599270E1
6.210993680E0,1.675941236E-2,1.049857497E0,1.009395409E1,1.014841814E1
6.220955928E0,-1.364694983E-1,1.167173386E0,1.018253994E1,1.025012377E1
6.230983552E0,-1.280897856E-1,9.828197956E-1,1.001015759E1,1.005910516E1
6.241103864E0,-2.968810201E-1,1.142034173E0,9.874884605E0,9.945135814E0
6.251072020E0,-3.591302633E-1,1.029506683E0,9.982624054E0,1.004199390E1
6.261033098E0,-2.729389966E-1,1.168370485E0,1.029865837E1,1.036831469E1
6.271031137E0,-3.711012602E-1,1.193509579E0,9.992200851E0,1.007006748E1
6.281029656E0,-2.621650994E-1,1.278503656E0,1.021366405E1,1.029670994E1
6.290969416E0,-2.394201607E-2,1.189918280E0,1.058356857E1,1.065027711E1
6.300925796E0,-1.747767180E-1,1.223437071E0,1.037048435E1,1.044386379E1
6.310991986E0,-1.376665980E-1,1.119289279E0,9.973047256E0,1.003660461E1
6.320993081E0,-1.879448295E-1,1.137245774E0,1.017056847E1,1.023567849E1
6.330978628E0,-1.496376097E-1,1.124077678E0,1.014423275E1,1.020741888E1
6.340989402E0,-7.661445439E-2,1.150413871E0,9.674968719E0,9.743425556E0
6.350997289E0,-3.459621370E-1,1.130063176E0,1.014064121E1,1.020927700E1
6.361085732E0,-2.310404629E-1,1.225831270E0,9.481039047E0,9.562747692E0
6.371059954E0,-3.483563364E-1,1.346738458E0,1.000536919E1,1.010160726E1
6.380990065E0,-4.548983276E-2,1.398213744E0,1.026274586E1,1.035765531E1
6.390917120E0,-1.795651317E-1,1.231816769E0,9.645041466E0,9.725041957E0
6.401002148E0,-1.891419291E-1,1.104924083E0,9.728838921E0,9.793208802E0
6.411109662E0,-1.915361285E-1,1.060631394E0,9.975440979E0,1.003349629E1
6.421440919E0,-3.950432688E-2,1.097741485E0,9.673771858E0,9.735936469E0
6.431179047E0,-3.507505357E-1,1.200692177E0,9.666589737E0,9.747186506E0
6.441025111E0,-1.879448295E-1,1.175553083E0,1.023281765E1,1.030183505E1
6.450979643E0,-3.208230138E-1,1.264138460E0,9.813833237E0,9.900115972E0
6.461066409E0,-2.896983922E-1,1.504755735E0,9.776722908E0,9.896086388E0
6.471004292E0,-7.422025502E-2,1.422155857E0,1.007120991E1,1.017139641E1
6.480921234E0,-8.858546615E-2,1.320402265E0,9.653421402E0,9.743708446E0
6.490934705E0,-1.544260085E-1,1.323993564E0,9.744400978E0,9.835149047E0
6.500905440E0,-6.943184882E-2,1.101332784E0,9.825803757E0,9.887576758E0
6.510911808E0,1.304839998E-1,1.102529883E0,9.764751434E0,9.827663445E0
6.521070492E0,-4.309562966E-2,1.646013618E0,9.934740067E0,1.007026704E1
6.531051834E0,-1.412578970E-1,1.061828494E0,9.447520256E0,9.508053036E0
6.540994505E0,-2.130839527E-1,1.216254473E0,9.537302017E0,9.616902281E0
6.550951340E0,-3.375824392E-1,9.888052940E-1,9.331400871E0,9.389714587E0
6.560937758E0,-1.496376097E-1,1.392228246E0,9.631873131E0,9.733122362E0
6.570939467E0,-1.568202078E-1,1.599326730E0,9.873687744E0,1.000360676E1
6.580966321E0,-1.089361757E-1,1.323993564E0,9.484629631E0,9.577213858E0
6.590944248E0,-1.568202078E-1,1.329979062E0,9.595960617E0,9.688957480E0
6.601034212E0,-2.142810524E-1,1.106121182E0,9.308655739E0,9.376592777E0
6.610987694E0,-1.388636976E-1,1.338358760E0,9.437943459E0,9.533376318E0
6.620923935E0,-3.938461840E-1,1.140837073E0,9.537302017E0,9.613363293E0
6.630933555E0,-1.017535701E-1,1.209071875E0,9.867702484E0,9.942019961E0
6.640986365E0,-3.028665185E-1,1.371877551E0,9.806650162E0,9.906773619E0
6.651022770E0,-1.795651317E-1,1.699883223E0,1.014064121E1,1.028369830E1
6.660980473E0,-8.978256583E-2,1.495178938E0,9.557653427E0,9.674314446E0
6.670965324E0,-1.029506698E-1,1.589749932E0,9.707290649E0,9.837143663E0
6.680953250E0,-3.711012751E-2,1.040280581E0,9.850942612E0,9.905787762E0
6.690921213E0,-5.985504016E-3,1.346738458E0,9.764751434E0,9.857185748E0
6.700892194E0,-2.477998734E-1,1.425747156E0,9.512163162E0,9.621611495E0
6.710951685E0,1.879448295E-1,1.514332533E0,1.003409958E1,1.014946701E1
6.721068430E0,-2.956839204E-1,1.456871748E0,9.892841339E0,1.000390994E1
6.730981303E0,-1.460463107E-1,1.013944387E0,8.998606682E0,9.056728712E0
6.740931739E0,-1.843535304E-1,1.254561663E0,9.536105156E0,9.620042242E0
6.750941957E0,-3.902548850E-1,1.477222443E0,1.010233402E1,1.021722260E1
6.760899566E0,-4.668693244E-2,1.555034041E0,1.007480049E1,1.019420990E1
6.770916371E0,-4.118026793E-1,1.601720929E0,9.792284966E0,9.930958475E0
6.780886773E0,-2.633621916E-2,1.282094955E0,9.987412453E0,1.006940259E1
6.790949474E0,-2.992752194E-2,1.570596337E0,1.007719517E1,1.019889852E1
6.801055825E0,-2.885012925E-1,1.422155857E0,9.660603523E0,9.768982583E0
6.811056500E0,-1.915361360E-2,1.707065821E0,9.925163269E0,1.007091389E1
6.820982838E0,-2.154781483E-2,1.264138460E0,9.804255486E0,9.885440606E0
6.830972007E0,-1.819593310E-1,1.314416766E0,9.569623947E0,9.661185389E0
6.840924591E0,-2.489969730E-1,1.345541358E0,9.488221169E0,9.586387327E0
6.850923383E0,-3.315969408E-1,1.487996340E0,1.001733971E1,1.013267904E1
6.860899279E0,-2.082955539E-1,1.715445518E0,9.989806175E0,1.013816393E1
6.870885227E0,-1.556231081E-1,1.477222443E0,9.957485199E0,1.006766687E1
6.880900201E0,-1.436520964E-1,1.612494826E0,9.916783333E0,1.004805290E1
6.890977688E0,-1.173158810E-1,1.267729759E0,9.758766174E0,9.841464271E0
6.900965932E0,-2.226607651E-1,1.578976035E0,1.003888798E1,1.016474372E1
6.910952054E0,-8.738835901E-2,1.659181833E0,1.003888798E1,1.017545050E1
6.921016115E0,-2.322375625E-1,1.364694953E0,1.036569595E1,1.045772342E1
6.930983145E0,-2.549824715E-1,1.514332533E0,1.002571964E1,1.014264627E1
6.940922160E0,-2.394201756E-1,1.516726732E0,1.013106441E1,1.024676769E1
6.950910168E0,-3.471592367E-1,1.868674397E0,1.024000072E1,1.041489695E1
6.960971172E0,-5.985504389E-2,1.657984734E0,9.653421402E0,9.794949758E0
6.970963174E0,-2.633621916E-2,1.635239720E0,9.598354340E0,9.736688789E0
6.981038675E0,6.584054977E-2,1.790862918E0,9.951498985E0,1.011157045E1
6.990977425E0,-1.280897856E-1,1.769315004E0,9.446322441E0,9.611445793E0
7.001142800E0,-6.703764945E-2,1.679532528E0,9.588777542E0,9.734987330E0
7.011051488E0,-3.447650373E-1,1.438915253E0,9.864110947E0,9.974468648E0
7.020982332E0,-9.696517140E-2,1.345541358E0,1.013944435E1,1.022879345E1
7.030964754E0,-6.739677787E-1,1.408987641E0,9.619902611E0,9.745871176E0
7.040904465E0,-2.094926536E-1,1.543063045E0,1.000177765E1,1.012227676E1
7.050978320E0,5.267243832E-2,1.697489023E0,1.004367638E1,1.018624948E1
7.060980248E0,-1.125274822E-1,1.800439715E0,9.643844604E0,9.811115347E0
7.070996212E0,4.788403399E-3,1.895010591E0,9.568427086E0,9.754275215E0
7.080948694E0,-8.499415964E-2,1.599326730E0,9.637859344E0,9.770025729E0
7.090942435E0,-3.746925592E-1,1.831564307E0,1.005085850E1,1.022324698E1
7.101121305E0,-3.998316824E-1,1.640028119E0,1.001973438E1,1.016093670E1
7.111026240E0,-1.137245819E-1,2.068590164E0,1.029386997E1,1.050027417E1
7.121118208E0,-1.831564307E-1,2.097320795E0,1.024000072E1,1.045418173E1
7.131025192E0,-3.627215624E-1,1.909375906E0,9.759963036E0,9.951590915E0
7.141011184E0,-2.394201700E-3,1.241393566E0,9.303867340E0,9.386320429E0
7.150945180E0,-2.382230759E-1,1.171961784E0,9.033323288E0,9.112144330E0
7.160951178E0,-8.379706182E-3,1.738190413E0,9.850942612E0,1.000312184E1
7.170940177E0,-1.005564705E-1,2.330755472E0,9.890447617E0,1.016186433E1
7.180955676E0,2.418143749E-1,2.311601639E0,9.665391922E0,9.940914311E0
7.190902926E0,-4.800374508E-1,1.934514999E0,8.655038834E0,8.881581022E0
7.200874551E0,-5.434837937E-1,1.952471495E0,9.484629631E0,9.698748311E0
7.210961863E0,-4.656722248E-1,1.491587639E0,9.998186111E0,1.011955581E1
7.221061519E0,-2.573766708E-1,2.516305923E0,1.129943466E1,1.157908727E1
7.230984847E0,-6.033388376E-1,1.697489023E0,9.923966408E0,1.008615863E1
7.241004011E0,-3.292027414E-1,1.845929503E0,9.774328232E0,9.952553570E0
7.251060093E0,-9.097966552E-2,1.555034041E0,1.003050804E1,1.015073888E1
7.281032790E0,5.027823523E-2,2.357091665E0,1.042794514E1,1.069113880E1
7.290989483E0,-2.573766708E-1,1.635239720E0,1.040400314E1,1.053487224E1
7.300982329E0,-2.489969730E-1,2.011129379E0,9.959878922E0,1.016394751E1
7.310973752E0,-8.379705995E-2,1.641225219E0,9.576807022E0,9.716783156E0
7.320986464E0,-3.160346150E-1,1.923741102E0,1.042076302E1,1.060155458E1
7.350961462E0,-1.628057212E-1,1.994369984E0,9.698910713E0,9.903175569E0
7.360903819E0,-1.675941199E-1,1.766920805E0,9.609128952E0,9.771665986E0
7.370882497E0,-6.224924326E-2,2.420537949E0,9.968258858E0,1.025812184E1
7.381045836E0,1.089361757E-1,1.976413488E0,9.368511200E0,9.575337042E0
7.390974006E0,-4.560954273E-1,2.115277290E0,1.069370174E1,1.091043895E1
7.400997591E0,-1.987187415E-1,2.061407566E0,1.072602367E1,1.092412350E1
7.410960383E0,-1.771709323E-1,1.994369984E0,9.677363396E0,9.882320753E0
7.421223279E0,-3.627215624E-1,2.357091665E0,1.089840603E1,1.115628531E1
7.431229227E0,-2.286462635E-1,2.115277290E0,1.030943298E1,1.052668445E1
7.441042201E0,4.908113554E-2,2.185906172E0,9.738415718E0,9.980848433E0
7.451001188E0,-2.837128937E-1,1.608903527E0,9.812635422E0,9.947707147E0
7.461193182E0,3.280056417E-1,2.098517895E0,9.986215591E0,1.020959680E1
7.471114179E0,-1.675941199E-1,2.237381458E0,9.520543098E0,9.781344717E0
7.481147677E0,-3.627215624E-1,1.981201887E0,1.053448772E1,1.072530463E1
7.491066426E0,1.077390742E-2,2.319981337E0,1.018493366E1,1.044582707E1
7.500964801E0,-4.548983276E-1,2.324769735E0,1.000536919E1,1.028196962E1
7.510939488E0,1.077390742E-2,1.935712099E0,9.749189377E0,9.939506573E0
7.520978332E0,-1.651999205E-1,2.233790159E0,9.841365814E0,1.009304665E1
7.530954254E0,-8.499415964E-2,1.850717902E0,9.221267700E0,9.405538728E0
7.540973715E0,-7.182604820E-2,2.477998734E0,9.611522675E0,9.926077011E0
7.550956945E0,4.082113802E-1,1.772906303E0,9.372102737E0,9.547048916E0
7.560972060E0,-1.747767180E-1,2.511517525E0,9.566033363E0,9.891777469E0
7.570960618E0,-3.926490843E-1,2.225410461E0,9.698910713E0,9.958689374E0
7.580956897E0,-9.097966552E-2,2.121262789E0,9.974244118E0,1.019772420E1
7.590911036E0,-8.978256583E-2,2.561795712E0,1.020289040E1,1.051997294E1
7.600919606E0,-1.735796183E-1,2.167949677E0,1.001015759E1,1.024370004E1
7.611216391E0,-7.194576263E-1,2.579752445E0,1.041118622E1,1.075014141E1
7.621147283E0,7.182605099E-3,2.438494444E0,1.026035118E1,1.054614210E1
7.631047729E0,-1.364694983E-1,2.273294449E0,9.923966408E0,1.018192520E1
7.641011952E0,2.873041928E-1,2.583343744E0,9.761159897E0,1.010130938E1
7.650974564E0,-8.738835901E-2,1.827973008E0,9.738415718E0,9.908877976E0
7.661026370E0,3.232172430E-1,2.846705914E0,9.740809441E0,1.015340202E1
7.671109773E0,5.746083856E-1,1.885433793E0,9.078812599E0,9.290310737E0
7.681309974E0,-6.332663298E-1,2.456450939E0,9.830592155E0,1.015262132E1
7.691117075E0,-1.077390760E-1,2.446874142E0,9.252392769E0,9.571080019E0
7.701122125E0,-5.746084079E-2,1.899798989E0,9.430760384E0,9.620383535E0
7.711052150E0,-3.292027414E-1,2.614468336E0,1.008437729E1,1.042297867E1
7.720951163E0,6.703764945E-2,2.234987259E0,9.726444244E0,9.980149284E0
7.731056169E0,-6.560112834E-1,2.495955229E0,9.518148422E0,9.861809808E0
7.740994672E0,2.980781198E-1,2.748543501E0,1.031661510E1,1.068063150E1
7.751001424E0,-2.944868207E-1,2.979583979E0,1.010233402E1,1.053668809E1
7.761033800E0,-6.344634295E-2,1.957259893E0,9.738415718E0,9.933359574E0
7.771206988E0,-2.549824715E-1,2.600103140E0,9.643844604E0,9.991460912E0
7.781130082E0,-2.047042400E-1,2.938882589E0,9.963470459E0,1.038988346E1
7.790996629E0,-2.585737705E-1,1.896207690E0,9.854534149E0,1.003864071E1
7.800934402E0,-4.584896266E-1,3.366247654E0,1.030943298E1,1.085477980E1
7.811006789E0,3.112462163E-1,2.102109194E0,9.458293915E0,9.694073501E0
7.821153982E0,-1.101332754E-1,2.624045134E0,1.002332497E1,1.036169801E1
7.831103579E0,-1.233013868E-1,2.433706045E0,9.730035782E0,1.003053960E1
7.841099877E0,2.442085743E-1,2.178723574E0,9.855731010E0,1.009662855E1
7.851093026E0,-2.394201700E-3,2.980781078E0,9.428366661E0,9.888334514E0
7.860988601E0,2.166752517E-1,1.847126603E0,9.344569206E0,9.527843329E0
7.870939388E0,-4.429273009E-1,2.905363798E0,1.040998936E1,1.081689428E1
7.880937782E0,-1.951274425E-1,2.545036316E0,9.433155060E0,9.772394740E0
7.890955979E0,1.747767180E-1,2.450465441E0,9.532513618E0,9.843990231E0
7.901057577E0,-5.674257874E-1,2.810792685E0,1.016458321E1,1.056131049E1
7.910983376E0,-1.508347094E-1,2.379836559E0,9.879673004E0,1.016338093E1
7.920945276E0,-4.620809257E-1,2.542642117E0,9.967061996E0,1.029664375E1
7.930915726E0,5.985504389E-2,2.918531895E0,9.757569313E0,1.018486966E1
7.941187451E0,-1.795651317E-1,2.278082848E0,1.006043530E1,1.031669828E1
7.951154813E0,8.140286058E-2,2.850297213E0,1.005085850E1,1.044751536E1
7.961095494E0,-2.849099934E-1,2.715024710E0,9.792284966E0,1.016569613E1
7.971010835E0,1.125274822E-1,2.688688517E0,9.817423820E0,1.017956378E1
7.981149505E0,-1.592144072E-1,2.865859509E0,9.618705750E0,1.003782846E1
7.991042840E0,-9.457096457E-2,2.596511841E0,9.771934509E0,1.011145496E1
8.001038008E0,-1.759738177E-1,2.658761024E0,9.971850395E0,1.032171387E1
8.010954592E0,-4.788403213E-2,2.777273893E0,1.008078671E1,1.045647186E1
8.020907884E0,-4.333505034E-1,2.768894196E0,1.003050804E1,1.041468479E1
8.030998530E0,-1.304839998E-1,2.851494312E0,9.946710587E0,1.034819295E1
8.041032353E0,-3.746925592E-1,2.430114746E0,9.443928719E0,9.758772558E0
8.050969264E0,-3.782838583E-1,3.064578056E0,9.848548889E0,1.032127185E1
8.061533720E0,1.819593310E-1,2.306813240E0,9.560047150E0,9.836106853E0
8.071228948E0,-5.446808934E-1,3.119644880E0,9.832986832E0,1.033036744E1
8.081076062E0,-2.525882721E-1,2.612074137E0,9.716867447E0,1.006500100E1
8.091000119E0,1.699883193E-1,3.046621561E0,9.722852707E0,1.019042019E1
8.100933147E0,-3.471592441E-2,2.692279816E0,9.864110947E0,1.022498218E1
8.110908161E0,-5.985504389E-2,2.430114746E0,9.538499832E0,9.843374389E0
8.120986668E0,-3.794809580E-1,2.774879694E0,1.007719517E1,1.045915033E1
8.130954422E0,-1.352723986E-1,3.086126089E0,9.463082314E0,9.954516549E0
8.141019799E0,1.197100850E-3,2.600103140E0,9.771934509E0,1.011193561E1
8.150963987E0,-2.549824715E-1,3.222595453E0,1.006642151E1,1.057274702E1
8.160928081E0,-2.968810201E-1,3.137601376E0,9.588777542E0,1.009343031E1
8.171008128E0,-7.182604820E-2,2.796427488E0,9.270348549E0,9.683208554E0
8.180936652E0,-5.985504389E-2,2.983175278E0,9.998186111E0,1.043391791E1
8.191062414E0,-2.729389966E-1,2.406172752E0,9.036913872E0,9.355745579E0
8.201094295E0,-3.483563364E-1,3.019088268E0,9.592369080E0,1.006229550E1
8.211007235E0,1.855506301E-1,2.579752445E0,9.132682800E0,9.491862138E0
8.221009205E0,-9.576806426E-2,2.905363798E0,9.405621529E0,9.844593778E0
8.231065690E0,-2.286462635E-1,2.381033659E0,9.238027573E0,9.542680642E0
8.240985933E0,-3.435679376E-1,3.107673883E0,9.809044838E0,1.029529196E1
8.250956554E0,-8.379705995E-2,2.940079689E0,1.011191082E1,1.053099383E1
8.260991365E0,-3.806780577E-1,2.754528999E0,1.023521233E1,1.060622068E1
8.270956770E0,-4.572925270E-1,3.258508444E0,1.010592556E1,1.062811014E1
8.281001973E0,-7.781155407E-2,2.753331900E0,1.021366405E1,1.057855494E1
8.291012074E0,-3.375824392E-1,2.473210335E0,9.585186958E0,9.904874572E0
8.301131625E0,1.185129806E-1,2.792836189E0,9.074024200E0,9.494835148E0
8.311141900E0,-3.220201433E-1,3.687070608E0,9.117119789E0,9.839718486E0
8.321207038E0,3.675099611E-1,2.602497339E0,9.105149269E0,9.476908736E0
8.331155107E0,-6.607996821E-1,3.300406933E0,9.710882187E0,1.027767362E1
8.341030641E0,2.454056740E-1,3.296815634E0,9.386467934E0,9.951632908E0
8.350996908E0,-3.806780577E-1,2.675520420E0,1.010951710E1,1.046449527E1
8.361052542E0,-4.776432514E-1,2.555810213E0,9.493009567E0,9.842638852E0
8.371019859E0,-2.035071403E-1,2.154781580E0,9.938331604E0,1.017127985E1
8.380977017E0,-3.172317147E-1,3.353079557E0,9.854534149E0,1.041420289E1
8.390967596E0,-7.661445439E-2,2.194285870E0,8.939949036E0,9.205620512E0
8.400991386E0,-5.746083856E-1,3.584120035E0,1.035492229E1,1.097271648E1
8.410958781E0,3.711012751E-2,2.972401381E0,9.085995674E0,9.559909232E0
8.420921978E0,5.422866940E-1,3.040636063E0,8.911218643E0,9.431296848E0
8.430928077E0,-2.537853718E-1,3.452438831E0,1.018972206E1,1.076169952E1
8.440931126E0,-2.885012925E-1,2.859874010E0,9.680954933E0,1.009866332E1
8.450937651E0,-1.268926859E-1,3.347094059E0,1.003529644E1,1.057952338E1
8.460939913E0,-2.537853718E-1,2.792836189E0,1.050575733E1,1.087360465E1
8.471029044E0,-1.867477298E-1,3.195062160E0,1.094988155E1,1.140803239E1
8.481051110E0,-2.442085743E-1,3.016694069E0,1.024838066E1,1.068594344E1
8.490986643E0,-2.849099934E-1,3.092111588E0,1.012747288E1,1.059282940E1
8.500938409E0,-1.472434103E-1,3.047818661E0,1.066975975E1,1.109750658E1
8.510925792E0,4.058171809E-1,2.598906040E0,9.412803650E0,9.773426868E0
8.520907484E0,-2.322375625E-1,3.086126089E0,9.788693428E0,1.026628597E1
8.530927330E0,-8.499415964E-2,3.570951939E0,1.007360363E1,1.068814352E1
8.540983753E0,-2.035071515E-2,2.395398855E0,8.877699852E0,9.195210954E0
8.550939464E0,-5.674257874E-1,3.590105534E0,9.749189377E0,1.040468756E1
8.560912320E0,-5.674257874E-1,2.291250944E0,9.436745644E0,9.727485351E0
8.571017248E0,-4.034229815E-1,3.014299870E0,9.514557838E0,9.988771930E0
8.581027212E0,2.861070931E-1,3.038241863E0,9.793481827E0,1.025792655E1
8.591022194E0,8.379706182E-3,2.894589901E0,8.910021782E0,9.368415505E0
8.600958685E0,-1.604115069E-1,3.295618534E0,1.001015759E1,1.053992829E1
8.610959930E0,-1.304839998E-1,3.324349165E0,1.028429317E1,1.080902445E1
8.620962053E0,-9.816227108E-2,3.356670856E0,9.785101891E0,1.034529333E1
8.630954114E0,-1.316810995E-1,3.456030130E0,1.034774017E1,1.091041754E1
8.640938645E0,5.985504016E-3,3.286041737E0,1.009515190E1,1.061650592E1
8.650951910E0,-7.781155407E-2,2.547430515E0,8.628703117E0,8.997220368E0
8.661058543E0,1.221042871E-1,3.009511471E0,1.084214211E1,1.125273807E1
8.670986359E0,1.759738177E-1,2.636016130E0,9.838972092E0,1.018748839E1
8.680973767E0,-6.464344263E-2,3.181894064E0,8.985439301E0,9.532405155E0
8.690948971E0,5.626374111E-2,3.118447781E0,1.030344677E1,1.076517057E1
8.700984073E0,-2.621650994E-1,3.326743364E0,9.895236015E0,1.044277969E1
8.710941124E0,-3.232172132E-2,3.608062029E0,9.125499725E0,9.812945610E0
8.720899150E0,-7.721300721E-1,3.301604033E0,9.837775230E0,1.040570015E1
8.730869663E0,-1.412578970E-1,3.606864929E0,9.746794701E0,1.039372096E1
8.741019919E0,-4.417302012E-1,3.108870983E0,9.026140213E0,9.556746910E0
8.750961547E0,-5.793967843E-1,2.902969599E0,9.271546364E0,9.732651494E0
8.760924361E0,-3.184288144E-1,3.484760523E0,9.657012939E0,1.027145811E1
8.770989768E0,4.393360019E-1,2.613271236E0,8.652645111E0,9.049335340E0
8.781060472E0,-6.452373862E-1,2.938882589E0,9.578003883E0,1.003949802E1
8.791057824E0,-2.406172752E-1,3.416525841E0,9.661801338E0,1.025089999E1
8.800989500E0,3.351882473E-2,2.906560898E0,9.143456459E0,9.594374174E0
8.810936838E0,2.382230759E-1,2.911349297E0,9.403226852E0,9.846490756E0
8.820886507E0,-2.262520641E-1,3.363853455E0,1.009515190E1,1.064325101E1
8.831004841E0,-2.346317619E-1,3.216609955E0,9.416395187E0,9.953397912E0
8.841065508E0,6.021417379E-1,3.013102770E0,9.379284859E0,9.869769371E0
8.851030842E0,4.788403399E-3,3.433285236E0,9.112331390E0,9.737661619E0
8.861059009E0,-7.422025502E-2,2.627636433E0,8.889671326E0,9.270180049E0
8.870964092E0,-3.399766386E-1,3.512293816E0,1.005325317E1,1.065456200E1
8.880930634E0,3.040636182E-1,2.955641985E0,9.334992409E0,9.796446167E0
8.890942905E0,-9.900023937E-1,3.213018656E0,9.526528358E0,1.010239260E1
8.901040040E0,-5.135562420E-1,3.136404276E0,9.417592049E0,9.939407014E0
8.910988108E0,3.591302410E-2,3.848679304E0,1.048061752E1,1.116498839E1
8.921046642E0,-2.657563984E-1,2.995146275E0,9.677363396E0,1.013375004E1
8.930983409E0,-8.619125932E-2,3.435679436E0,9.454702377E0,1.005995622E1
8.941070792E0,-5.506663769E-2,2.920926094E0,9.429563522E0,9.871753127E0
8.951017984E0,-3.375824392E-1,3.241749048E0,9.459490776E0,1.000524185E1
8.961000080E0,2.262520641E-1,3.157952070E0,9.396044731E0,9.915115121E0
8.971067128E0,-5.710170865E-1,3.201047659E0,9.524134636E0,1.006389125E1
8.981047152E0,-7.422025502E-2,3.156754971E0,8.763975143E0,9.315464074E0
8.991003664E0,-1.771709323E-1,2.396595955E0,9.902418137E0,1.018984527E1
9.001032420E0,-5.446808934E-1,3.590105534E0,1.058356857E1,1.118916703E1
9.011041298E0,8.858546615E-2,2.868253708E0,9.646238327E0,1.006402706E1
9.021029737E0,-2.585737705E-1,3.468001127E0,1.018493366E1,1.076228442E1
9.030971956E0,-3.782838583E-1,3.246537447E0,1.069968700E1,1.118777932E1
9.041094566E0,-4.668693244E-2,3.580528736E0,1.030584145E1,1.091021235E1
9.051235871E0,-2.633621916E-2,3.110068083E0,9.780313492E0,1.026293082E1
9.061163023E0,-2.346317619E-1,3.365050554E0,1.009036350E1,1.063926938E1
9.071045099E0,-9.696517140E-2,2.911349297E0,9.914389610E0,1.033346400E1
9.081196637E0,-7.422025502E-2,3.500322819E0,1.034534550E1,1.092171882E1
9.091052406E0,2.920926213E-1,2.591723442E0,9.026140213E0,9.395400771E0
9.101107791E0,-2.861070931E-1,3.746925592E0,1.088523769E1,1.151562887E1
9.111296483E0,-3.268085420E-1,2.870647907E0,9.903614998E0,1.031644383E1
9.121130829E0,-3.268085420E-1,2.870647907E0,9.903614998E0,1.031644383E1
9.131022002E0,9.576806799E-3,3.078943491E0,1.000656605E1,1.046954387E1
9.140981589E0,-2.681505978E-1,3.353079557E0,1.035971069E1,1.089213721E1
9.150941882E0,-2.166752517E-1,3.433285236E0,1.038484955E1,1.093981242E1
9.160988529E0,7.661445439E-2,2.844311714E0,9.606734276E0,1.001924759E1
9.170932352E0,-2.777273953E-1,3.586514235E0,1.025915432E1,1.087154378E1
9.180917264E0,-1.699883193E-1,2.943670988E0,1.013106441E1,1.055142460E1
9.190934220E0,-1.209071875E-1,3.532644510E0,1.030943298E1,1.089855973E1
9.200883698E0,-2.023100406E-1,3.385401249E0,9.932345390E0,1.049539689E1
9.210866937E0,1.197100803E-2,3.008314371E0,1.010592556E1,1.054418466E1
9.220846056E0,-1.699883193E-1,3.375824451E0,1.007958889E1,1.063123694E1
9.230865616E0,-1.951274425E-1,3.102885485E0,1.046266174E1,1.091481854E1
9.240897396E0,-2.537853718E-1,3.241749048E0,9.985017776E0,1.050113917E1
9.250882786E0,1.376665980E-1,3.493140221E0,1.021845245E1,1.079989589E1
9.260874981E0,2.011129409E-1,3.035847664E0,9.785101891E0,1.024719652E1
9.270856078E0,-2.094926536E-1,3.306392431E0,1.006163311E1,1.059304389E1
9.280877127E0,-1.675941199E-1,3.270479441E0,1.005205631E1,1.057203669E1
9.290928651E0,1.795651205E-2,3.058592558E0,9.762357712E0,1.023029516E1
9.300891913E0,1.436521020E-2,3.497928619E0,1.024359226E1,1.082436573E1
9.310924044E0,-6.464344263E-2,2.875436306E0,9.756371498E0,1.017148453E1
9.321080110E0,-4.321534038E-1,3.557783842E0,1.012747288E1,1.074291810E1
9.330969143E0,2.885012925E-1,3.112462282E0,9.495404243E0,9.996667255E0
9.340920659E0,-5.111620426E-1,3.228580952E0,9.753977776E0,1.028713294E1
9.350890417E0,-2.489969730E-1,3.239354849E0,1.001255131E1,1.052647154E1
9.360943296E0,-1.460463107E-1,3.331531763E0,9.586383820E0,1.014983685E1
9.370956236E0,-4.106055796E-1,3.351882458E0,9.455899239E0,1.004080392E1
9.380935706E0,-2.298433632E-1,2.873042107E0,9.627084732E0,1.004927656E1
9.390894441E0,1.927332431E-1,2.908955097E0,1.010831928E1,1.052032721E1
9.400908308E0,-4.824316502E-1,3.456030130E0,9.403226852E0,1.002983349E1
9.410900742E0,4.129997790E-1,2.810792685E0,1.005445004E1,1.044811418E1
9.421060959E0,2.274491638E-1,3.628412724E0,1.036569595E1,1.098475146E1
9.430959567E0,-2.513911761E-2,3.020285368E0,9.053673744E0,9.544200540E0
9.441366871E0,-1.472434103E-1,3.493140221E0,1.033936024E1,1.091448942E1
9.451135523E0,-1.125274822E-1,2.813186884E0,1.028788471E1,1.066617339E1
9.461027849E0,-2.011129409E-1,3.992331266E0,9.825803757E0,1.060780726E1
9.471013512E0,-4.058171809E-1,2.656366825E0,9.884461403E0,1.024321969E1
9.481002844E0,-1.029506698E-1,3.011905670E0,9.811438560E0,1.026384437E1
9.490989010E0,-8.978256583E-2,3.321954966E0,1.000895977E1,1.054621835E1
9.500920593E0,-2.286462635E-1,3.500322819E0,9.849745750E0,1.045571759E1
9.510898884E0,3.495534360E-1,2.797624588E0,9.276334763E0,9.695322458E0
9.520967530E0,-3.830722570E-1,3.485957623E0,1.055124664E1,1.111878818E1
9.531053353E0,1.687912196E-1,3.272873640E0,1.006761837E1,1.058759330E1
9.540965264E0,1.568202078E-1,3.726574898E0,9.831789017E0,1.051551370E1
9.550939220E0,-4.249708056E-1,2.628833532E0,1.017296314E1,1.051572846E1
9.561035198E0,-3.100491166E-1,3.745728493E0,1.079904652E1,1.143442251E1
9.571081687E0,2.669534981E-1,2.604891539E0,9.368511200E0,9.727575556E0
9.581106431E0,-2.250549644E-1,3.215412855E0,1.024359226E1,1.073874816E1
9.590999803E0,-2.537853718E-1,3.434482336E0,1.092593956E1,1.145583830E1
9.601104489E0,2.322375625E-1,2.773682594E0,9.336189270E0,9.742262545E0
9.611005332E0,-4.716577232E-1,3.371036053E0,9.983820915E0,1.054812899E1
9.620945754E0,4.836287498E-1,3.150769472E0,1.065898609E1,1.112543166E1
9.631182465E0,-6.272808313E-1,3.359065056E0,1.007360363E1,1.063740050E1
9.641135820E0,3.184288144E-1,2.991554976E0,9.721655846E0,1.017651170E1
9.651049998E0,-2.645592988E-1,3.780444384E0,1.071644688E1,1.136679308E1
9.700898920E0,-1.424549967E-1,2.978386879E0,9.714473724E0,1.016179519E1
9.710871048E0,-1.077390742E-2,3.525461912E0,1.046864700E1,1.104633730E1
9.720996112E0,-2.489969730E-1,2.831143618E0,1.024359226E1,1.063054825E1
9.730993644E0,3.830722719E-2,3.501519918E0,9.755174637E0,1.036462934E1
9.760966359E0,-3.902548850E-1,3.335123062E0,9.903614998E0,1.045738661E1
9.771029267E0,-1.185129806E-1,3.259705544E0,9.075222015E0,9.643618625E0
9.780962221E0,3.100491166E-1,3.037044764E0,1.006761837E1,1.052029995E1
9.790922698E0,-2.537853718E-1,3.093308687E0,9.983820915E0,1.045512533E1
9.800879937E0,-1.879448295E-1,3.508702517E0,9.159018517E0,9.809889744E0
9.810902556E0,3.842693865E-1,2.667140722E0,9.461885452E0,9.838118667E0
9.820898366E0,-4.788403399E-3,3.329137564E0,1.041717148E1,1.093620782E1
9.830901271E0,-1.999158412E-1,3.020285368E0,9.823410034E0,1.027917675E1
9.840908723E0,-7.984662652E-1,4.052186489E0,1.003769016E1,1.085416913E1
9.850904949E0,4.094084799E-1,2.430114746E0,9.832986832E0,1.013709539E1
9.860910562E0,3.950432688E-2,3.616441727E0,1.027950478E1,1.089717531E1
9.870914369E0,-3.184288144E-1,2.761711597E0,9.483432770E0,9.882507018E0
9.880898772E0,4.345476031E-1,3.658340216E0,1.044470501E1,1.107538476E1
9.890961474E0,7.900865376E-2,2.846705914E0,9.251194954E0,9.679596324E0
9.900951825E0,-1.903390288E-1,3.142389774E0,9.557653427E0,1.006278199E1
9.910932000E0,3.591302549E-3,3.187879562E0,9.679757118E0,1.019118673E1
9.920887088E0,-1.819593310E-1,2.797624588E0,9.744400978E0,1.013968259E1
9.930917632E0,-3.746925592E-1,3.750516891E0,9.538499832E0,1.025620546E1
9.940943904E0,1.604115069E-1,3.129221678E0,9.917980194E0,1.040115817E1
9.950968040E0,-1.963245422E-1,3.089717388E0,9.445125580E0,9.939582189E0
9.961099108E0,2.789244950E-1,3.257311344E0,1.044949341E1,1.094896290E1
9.971133642E0,-1.149216816E-1,3.150769472E0,9.688137054E0,1.018825573E1
9.981090409E0,1.089361757E-1,2.918531895E0,9.372102737E0,9.816618829E0
9.991017792E0,-2.214636505E-1,3.028665066E0,1.007480049E1,1.052252171E1
1.000100898E1,-1.328781992E-1,3.281253338E0,1.006163311E1,1.058398512E1
1.001094458E1,-4.812345505E-1,3.410540342E0,9.326612473E0,9.942287078E0
1.002097138E1,5.889736414E-1,2.913743496E0,9.561244011E0,1.001270084E1
1.003103178E1,4.429273307E-2,3.057395458E0,1.026154804E1,1.070742719E1
1.004099748E1,2.130839527E-1,2.996343374E0,1.017056847E1,1.060490176E1
1.005103083E1,5.985504016E-3,3.408146143E0,9.649829865E0,1.023399787E1
1.006096350E1,6.069301367E-1,3.282450438E0,1.019331360E1,1.072597255E1
1.007095884E1,-1.173158810E-1,2.817975283E0,1.041238308E1,1.078760720E1
1.008093401E1,-3.052607179E-1,3.548206806E0,1.014303589E1,1.075007594E1
1.009096059E1,-1.915361360E-2,2.888604403E0,9.410409927E0,9.843790797E0
1.010095738E1,-5.231330991E-1,3.536235809E0,1.042435455E1,1.102024500E1
1.011095478E1,-2.178723514E-1,3.320757866E0,1.012388229E1,1.065682382E1
1.012094848E1,-3.830722719E-2,3.057395458E0,9.879673004E0,1.034200527E1
1.013092633E1,-1.460463107E-1,3.464409828E0,9.993397713E0,1.057787610E1
1.014092325E1,6.260837317E-1,3.167528868E0,9.837775230E0,1.035408332E1
1.015102871E1,8.259996027E-2,2.777273893E0,9.349357605E0,9.753489666E0
1.016096294E1,-1.233013868E-1,3.209427357E0,9.126696587E0,9.675340706E0
1.017094056E1,5.530605912E-1,2.857479811E0,9.701305389E0,1.012849412E1
1.018097887E1,-1.436520964E-1,2.993949175E0,9.394847870E0,9.861416434E0
1.019093852E1,-4.429273307E-2,3.458424330E0,9.712079048E0,1.030956547E1
1.020096035E1,-1.149216816E-1,2.869450808E0,9.713275909E0,1.012890339E1
1.021095376E1,-4.249708056E-1,3.239354849E0,1.039801788E1,1.089921079E1
1.022094147E1,1.795651317E-1,3.161543369E0,9.868899345E0,1.036449586E1
1.023096432E1,-3.459621370E-1,3.812766314E0,1.026753426E1,1.095806262E1
1.024099725E1,3.375824392E-1,2.784456491E0,9.302670479E0,9.716318124E0
1.025094771E1,-1.053448766E-1,3.815160513E0,9.823410034E0,1.053878228E1
1.026091194E1,5.638344884E-1,2.521094322E0,7.729680061E0,8.149955814E0
1.027092856E1,-8.379705995E-2,3.372233152E0,1.035611916E1,1.089165655E1
1.028094837E1,1.005564705E-1,3.519476414E0,9.074024200E0,9.733177334E0
1.029095827E1,2.214636505E-1,2.894589901E0,9.058462143E0,9.512278026E0
1.030095522E1,-1.975216419E-1,2.712630510E0,1.030703831E1,1.065985074E1
1.031099470E1,1.089361757E-1,3.311181068E0,1.014064121E1,1.066810158E1
1.032095744E1,1.843535304E-1,2.618059635E0,9.469067574E0,9.826060410E0
1.033094931E1,-5.518634915E-1,3.169923067E0,1.001374817E1,1.051799021E1
1.034092474E1,5.410895944E-1,3.050212860E0,1.006642151E1,1.053230357E1
1.035098046E1,-1.867477298E-1,3.301604033E0,9.252392769E0,9.825590865E0
1.036115132E1,-1.209071875E-1,3.581725836E0,1.018253994E1,1.079479032E1
1.037103325E1,-1.975216419E-1,2.952050686E0,9.442731857E0,9.895393018E0
1.038096771E1,7.781155407E-2,3.491943121E0,9.111134529E0,9.757688958E0
1.039095694E1,2.035071403E-1,2.755726099E0,9.891644478E0,1.027034916E1
1.040099006E1,-3.483563364E-1,2.981978178E0,9.671378136E0,1.012665300E1
1.041094762E1,-5.147533491E-2,2.811989784E0,9.306262016E0,9.721957055E0
1.042091390E1,-1.197100803E-2,3.331531763E0,9.733627319E0,1.028799047E1
1.043090104E1,-2.992752194E-2,2.795230389E0,9.959878922E0,1.034472797E1
1.044098811E1,2.382230759E-1,3.265691042E0,9.953893661E0,1.047862048E1
1.045109164E1,-8.499415964E-2,3.372233152E0,9.409213066E0,9.995622590E0
1.046144991E1,8.738835901E-2,3.034650564E0,1.029267311E1,1.073106987E1
1.047119854E1,3.280056417E-1,3.082534790E0,1.035851383E1,1.081241958E1
1.048134936E1,-3.950432688E-2,3.288435936E0,9.706093788E0,1.024810364E1
1.049112727E1,2.274491638E-1,3.213018656E0,1.023401546E1,1.072894657E1
1.050107622E1,1.999158412E-1,2.647987127E0,9.963470459E0,1.031128245E1
1.051101320E1,2.118868530E-1,2.966415882E0,9.557653427E0,1.000965825E1
1.052096869E1,-4.321534038E-1,2.949656487E0,9.858125687E0,1.029902287E1
1.053095093E1,1.556231081E-2,3.010708570E0,9.785101891E0,1.023781360E1
1.054094155E1,-4.429273307E-2,3.400963545E0,9.926360130E0,1.049290905E1
1.055092936E1,-8.511387110E-1,2.913743496E0,9.369708061E0,9.849150594E0
1.056094727E1,2.226607651E-1,3.801992416E0,1.106360626E1,1.170077381E1
1.057094072E1,3.770867586E-1,2.828749418E0,9.700108528E0,1.011118802E1
1.058093895E1,-9.002198577E-1,3.282450438E0,1.099178028E1,1.150669850E1
1.059093956E1,4.584896266E-1,3.184288263E0,1.051892471E1,1.099989462E1
1.060090987E1,-2.035071403E-1,2.590526342E0,9.567230225E0,9.913835588E0
1.061092802E1,-8.379705995E-2,2.715024710E0,1.043512821E1,1.078286984E1
1.062096610E1,2.609679997E-1,3.362656355E0,1.071405220E1,1.123238517E1
1.063096564E1,2.274491638E-2,2.952050686E0,9.266757965E0,9.725632307E0
1.064094341E1,-3.950432688E-2,3.790021181E0,9.103952408E0,9.861428425E0
1.065098329E1,5.614402890E-1,2.694674015E0,8.820239067E0,9.239756514E0
1.066092173E1,-1.987187415E-1,2.896984100E0,9.202114105E0,9.649399464E0
1.067093245E1,3.136404157E-1,3.524264812E0,9.288305283E0,9.939387698E0
1.068100332E1,2.406172752E-1,2.554613113E0,8.950722694E0,9.311250270E0
1.069105974E1,-8.367735147E-1,3.489548922E0,1.012388229E1,1.074104903E1
1.070095046E1,1.568202078E-1,3.020285368E0,1.013465595E1,1.057629271E1
1.071091882E1,-2.513911761E-2,3.070563793E0,9.038111687E0,9.545494060E0
1.072100950E1,-2.226607651E-1,2.306813240E0,9.524134636E0,9.802045996E0
1.073096934E1,-3.399766386E-1,3.295618534E0,1.193868637E1,1.238987159E1
1.074094326E1,1.221042871E-1,3.379415751E0,1.028668785E1,1.082826428E1
1.075097172E1,1.065419763E-1,3.585317135E0,1.083735371E1,1.141551950E1
1.076099545E1,4.309562966E-2,3.590105534E0,9.996989250E0,1.062217064E1
1.077097881E1,7.086837292E-1,2.282871246E0,9.106346130E0,9.414843260E0
1.078119899E1,7.098808289E-1,2.880224705E0,8.948328972E0,9.427206189E0
1.079105308E1,-5.710170865E-1,3.414131641E0,8.328230858E0,9.018968045E0
1.080097013E1,2.873041928E-1,3.032256365E0,8.746018410E0,9.261207285E0
1.081098965E1,1.436521020E-2,2.541445017E0,9.543288231E0,9.875904991E0
1.082095991E1,-5.913678408E-1,3.149572372E0,9.275136948E0,9.813138512E0
1.083094354E1,1.209071875E-1,2.767697096E0,9.490615845E0,9.886685738E0
1.084095086E1,-2.717418969E-1,2.734178305E0,8.943540573E0,9.356093877E0
1.085092802E1,-1.915361285E-1,3.323152065E0,9.605537415E0,1.016594190E1
1.086091810E1,-3.794809580E-1,3.052607059E0,9.637859344E0,1.011685467E1
1.087092564E1,-2.932897210E-1,2.941276789E0,9.026140213E0,9.497806860E0
1.088087991E1,2.394201700E-3,3.448847532E0,9.290699959E0,9.910179653E0
1.089090104E1,3.004723191E-1,3.098097086E0,9.586383820E0,1.007904975E1
1.090108311E1,-2.238578647E-1,3.575740337E0,9.706093788E0,1.034622095E1
1.091098914E1,2.956839204E-1,3.190273762E0,9.516951561E0,1.004179479E1
1.092095266E1,-1.568202078E-1,3.254917145E0,9.799467087E0,1.032708252E1
1.093089142E1,-3.830722719E-2,3.080140591E0,1.008078671E1,1.054091998E1
1.094098930E1,2.166752517E-1,2.595314741E0,1.047942066E1,1.079818800E1
1.095094674E1,-2.789244950E-1,3.268085241E0,1.127549267E1,1.174286655E1
1.096094046E1,-6.105214357E-2,3.275267839E0,1.074158573E1,1.122999425E1
1.097091982E1,6.105214357E-1,2.960430384E0,9.214085579E0,9.697229374E0
1.098091450E1,-4.189852998E-2,2.998737574E0,9.453505516E0,9.917809691E0
1.099090884E1,6.967126727E-1,2.869450808E0,8.627506256E0,9.118827813E0
1.100097951E1,4.369418025E-1,2.736572504E0,8.291120529E0,8.741992155E0
1.101090984E1,-5.195417404E-1,3.135207176E0,8.384494781E0,8.966560121E0
1.102098601E1,1.651999205E-1,3.391386747E0,9.342175484E0,9.940072326E0
1.103097109E1,-5.099649429E-1,3.039438963E0,8.980650902E0,9.494753502E0
1.104104463E1,-6.057330370E-1,3.394978046E0,8.696937561E0,9.355720784E0
1.105098190E1,-3.687070608E-1,2.928108692E0,9.099164009E0,9.565801120E0
1.106104304E1,-3.124433160E-1,3.137601376E0,9.736021042E0,1.023387849E1
1.107106711E1,-5.386953801E-2,3.444059134E0,1.113303757E1,1.165371060E1
1.108099364E1,1.005564705E-1,3.702632904E0,9.880870819E0,1.055230829E1
1.109094041E1,2.250549644E-1,3.227383852E0,9.575610161E0,1.010737187E1
1.110093379E1,1.723825186E-1,2.683900118E0,1.012388229E1,1.047501925E1
1.111093898E1,6.931213737E-1,3.224989653E0,1.087087250E1,1.136031885E1
1.112093858E1,7.134721279E-1,2.978386879E0,9.647436142E0,1.012189977E1
1.113093438E1,1.532289088E-1,3.242946148E0,1.030943298E1,1.080854233E1
1.114097878E1,2.777273953E-1,3.102885485E0,1.005205631E1,1.052372876E1
1.115093448E1,-2.992752194E-2,3.001131773E0,9.363722801E0,9.832954402E0
1.116092033E1,-2.561795712E-1,3.433285236E0,9.928754807E0,1.050872245E1
1.117106975E1,-3.196259141E-1,2.876633406E0,9.914389610E0,1.032822840E1
1.118099646E1,-1.699883193E-1,3.308786631E0,9.938331604E0,1.047603933E1
1.119104532E1,2.094926536E-1,3.059789658E0,9.170989990E0,9.670225298E0
1.120110975E1,9.816227108E-2,2.735375404E0,8.960299492E0,9.369038447E0
1.121108446E1,1.544260085E-1,2.964021683E0,9.688137054E0,1.013258464E1
1.122101732E1,3.770867586E-1,2.783259392E0,8.789113998E0,9.226984997E0
1.123107575E1,8.020575345E-2,3.269282341E0,9.719262123E0,1.025469142E1
1.124097846E1,-2.861070931E-1,3.250128746E0,9.964667320E0,1.048521764E1
1.125093132E1,-4.070143029E-2,2.911349297E0,9.621099472E0,1.005202300E1
1.126100025E1,-9.241618514E-1,3.324349165E0,1.060391903E1,1.115116457E1
1.127095771E1,1.029506698E-1,3.118447781E0,1.044231033E1,1.089849350E1
1.128099044E1,-5.542576909E-1,2.881421804E0,1.076552773E1,1.115824271E1
1.129097581E1,1.867477298E-1,3.706224203E0,1.157357121E1,1.215395092E1
1.130098999E1,8.774749041E-1,2.701856613E0,1.006163311E1,1.045497261E1
1.131103008E1,-1.221042871E-1,3.633201122E0,1.024598598E1,1.087176566E1
1.132094863E1,7.924807668E-1,3.090914488E0,1.074398041E1,1.120780501E1
1.133092290E1,2.454056740E-1,3.203441858E0,9.278728485E0,9.819219215E0
1.134089804E1,2.322375625E-1,3.368641853E0,1.069609642E1,1.121642371E1
1.135087211E1,1.843535304E-1,2.652775526E0,9.179368973E0,9.556778691E0
1.136095214E1,-1.101332754E-1,2.985569477E0,9.774328232E0,1.022072634E1
1.137101616E1,-1.340752989E-1,2.804807186E0,1.065300083E1,1.101686644E1
1.138103667E1,-1.831564307E-1,3.348291159E0,9.856928825E0,1.041170715E1
1.139096142E1,-2.059013397E-1,2.728192806E0,9.872490883E0,1.024458430E1
1.140107530E1,-1.023521185E0,3.515885115E0,1.040879154E1,1.103412820E1
1.141096774E1,4.836287498E-1,2.862268209E0,9.212887764E0,9.659388025E0
1.145103421E1,-1.807622313E-1,3.008314371E0,1.025795746E1,1.069150698E1
1.146105719E1,-2.286462635E-1,2.990357876E0,9.908403397E0,1.035234163E1
1.147116768E1,1.807622313E-1,2.717418909E0,1.014542961E1,1.050460768E1
1.148106543E1,-1.807622313E-1,3.412934542E0,1.065539455E1,1.119009519E1
1.149098930E1,-2.873041928E-1,3.022679567E0,1.018732834E1,1.063018317E1
1.150167324E1,-1.628057212E-1,3.532644510E0,1.069370174E1,1.126327394E1
1.151129871E1,-1.544260085E-1,2.412158251E0,8.987833023E0,9.307174505E0
1.152109094E1,-3.830722719E-2,3.892971992E0,1.059673691E1,1.128926621E1
1.153101756E1,7.098808289E-1,2.376245260E0,9.458293915E0,9.778026187E0
1.154096437E1,1.855506301E-1,3.477577925E0,9.623494148E0,1.023423748E1
1.155092877E1,-2.047042400E-1,3.087323189E0,9.218873978E0,9.724253478E0
1.156089397E1,1.699883193E-1,3.007117271E0,9.236829758E0,9.715486312E0
1.157119557E1,-2.693476975E-1,3.065775394E0,9.637859344E0,1.011730496E1
1.158116488E1,4.309562966E-2,3.459621429E0,9.740809441E0,1.033703082E1
1.159104752E1,-5.578489900E-1,2.729389906E0,8.841787338E0,9.270273356E0
1.160100285E1,-2.896983922E-1,3.412934542E0,1.008318043E1,1.064906451E1
1.161108851E1,-2.980781198E-1,3.901351690E0,1.068292809E1,1.137692173E1
1.162098984E1,-1.113303825E-1,2.679111719E0,9.381679535E0,9.757353379E0
1.163096801E1,-3.866635859E-1,3.792415380E0,1.013824749E1,1.083125040E1
1.164090809E1,-3.722983599E-1,2.743755102E0,9.154230118E0,9.563823879E0
1.165092513E1,3.603273630E-1,3.345896959E0,9.452308655E0,1.003349397E1
1.166098816E1,-3.471592441E-2,2.983175278E0,9.566033363E0,1.002045579E1
1.167103316E1,-3.603273630E-1,3.228580952E0,9.173383713E0,9.731625738E0
1.168098867E1,1.663970202E-1,2.627636433E0,8.863334656E0,9.246126887E0
1.169092792E1,1.316810995E-1,3.207033157E0,9.392453194E0,9.925753300E0
1.170092455E1,-1.771709323E-1,2.849100113E0,9.437943459E0,9.860199679E0
1.171089886E1,3.411737382E-1,2.960430384E0,8.611943245E0,9.112964064E0
1.172091302E1,-6.320692301E-1,3.183091164E0,9.749189377E0,1.027512892E1
1.173097560E1,-2.454056740E-1,3.162740469E0,1.114860058E1,1.159113653E1
1.174097139E1,-1.867477298E-1,3.157952070E0,9.145850182E0,9.677505440E0
1.175105078E1,8.619125932E-2,3.309983969E0,1.002093124E1,1.055379012E1
1.176100098E1,-7.302315533E-2,2.966415882E0,9.979032516E0,1.041086190E1
1.177097558E1,5.530605912E-1,2.900575399E0,9.339780807E0,9.795443798E0
1.178105238E1,-2.741360962E-1,3.162740469E0,9.484629631E0,1.000181369E1
1.179101478E1,-1.843535304E-1,2.990357876E0,9.539696693E0,9.999101932E0
1.180102698E1,-1.244984865E-1,3.679888010E0,1.013345909E1,1.078165427E1
1.181122158E1,-2.657563984E-1,3.156754971E0,9.630676270E0,1.013832599E1
1.182108988E1,7.541735470E-2,2.870647907E0,9.042900085E0,9.487905414E0
1.183110753E1,-2.956839204E-1,3.174711466E0,1.035013390E1,1.083011974E1
1.184101335E1,-2.154781483E-2,3.027467966E0,9.580398560E0,1.004739086E1
1.185102076E1,-2.286462635E-1,2.913743496E0,9.228450775E0,9.680210947E0
1.186093497E1,-7.146692276E-1,3.375824451E0,1.060631371E1,1.115351215E1
1.187091057E1,7.086837292E-1,2.590526342E0,9.538499832E0,9.909391425E0
1.188092187E1,-6.380547285E-1,3.562572241E0,9.901221275E0,1.054197408E1
1.189100552E1,3.327940404E-1,3.362656355E0,1.019810200E1,1.074334650E1
1.190096485E1,-5.410895944E-1,2.659958124E0,9.259574890E0,9.649242577E0
1.191096901E1,3.890577853E-1,3.323152065E0,1.059554005E1,1.111126341E1
1.192100009E1,-6.823474914E-2,2.807201385E0,1.032858658E1,1.070349178E1
1.193096914E1,-3.375824392E-1,3.306392431E0,1.044949341E1,1.096531373E1
1.194118566E1,2.837128937E-1,2.960430384E0,1.012747288E1,1.055511004E1
1.195105942E1,1.723825186E-1,3.027467966E0,1.001973438E1,1.046854121E1
1.196103030E1,-5.865794048E-2,3.203441858E0,1.005085850E1,1.054918182E1
1.197102874E1,9.576806426E-2,3.031059265E0,9.591172218E0,1.005917871E1
1.198100646E1,-7.757213712E-1,3.246537447E0,1.037407589E1,1.089785298E1
1.199097132E1,-1.197100803E-2,2.913743496E0,1.038365269E1,1.078472473E1
1.200098174E1,-1.640028208E-1,3.313575268E0,1.030823517E1,1.082896072E1
1.201093896E1,-4.704606235E-1,3.017891169E0,1.040879154E1,1.084766987E1
1.202100357E1,7.900865376E-2,2.780865192E0,1.052850151E1,1.088984838E1
1.203109037E1,-1.005564705E-1,2.911349297E0,1.063983250E1,1.103141432E1
1.204110877E1,2.956839204E-1,2.877830505E0,1.079066753E1,1.117174307E1
1.205102048E1,5.722141862E-1,2.348711967E0,1.015740108E1,1.044110501E1
1.206097632E1,-3.363853395E-1,3.734954596E0,9.793481827E0,1.048691219E1
1.207097825E1,6.464344263E-2,2.436100245E0,7.480683327E0,7.867616298E0
1.208096571E1,-5.865794048E-2,3.651157618E0,9.248801231E0,9.943576666E0
1.209096244E1,-4.908113554E-2,3.641580820E0,8.267178535E0,9.033812084E0
1.210093281E1,1.161187813E-1,3.733757496E0,8.252813339E0,9.058882747E0
1.211090949E1,1.244984865E-1,3.021482468E0,9.050082207E0,9.541951798E0
1.212094383E1,-5.398924947E-1,3.667917013E0,1.063504410E1,1.126273777E1
1.213093050E1,3.363853395E-1,2.574964046E0,9.582792282E0,9.928418951E0
1.214098584E1,-4.273650050E-1,2.559401512E0,1.019570827E1,1.052072451E1
1.215095251E1,-5.027823523E-2,2.085349798E0,1.123958015E1,1.143150794E1
1.216094634E1,2.190694511E-1,3.654748917E0,1.051892471E1,1.113790636E1
1.217091726E1,-1.903390288E-1,3.142389774E0,1.007001209E1,1.055063913E1
1.218095222E1,-2.466027737E-1,4.028244495E0,9.915586472E0,1.070543888E1
1.219100470E1,4.129997790E-1,3.093308687E0,8.588001251E0,9.137444552E0
1.220237294E1,-1.017535701E-1,4.119224072E0,9.801861763E0,1.063272565E1
1.221164956E1,-2.166752517E-1,2.962824583E0,8.283937454E0,8.800505521E0
1.222128387E1,1.005564705E-1,2.580949545E0,8.151060104E0,8.550508346E0
1.223112752E1,-2.418143749E-1,2.604891539E0,7.750030994E0,8.179664696E0
1.224104585E1,8.379705995E-2,1.444900751E0,8.245630264E0,8.371689112E0
1.225107501E1,-3.064578176E-1,3.113659382E0,9.431957245E0,9.937334080E0
1.226100709E1,7.505822182E-1,2.416946650E0,8.722076416E0,9.081829209E0
1.227096214E1,-6.991068721E-1,3.074155092E0,9.563638687E0,1.006987412E1
1.228092066E1,-5.267243981E-1,2.639607430E0,8.763975143E0,9.168000125E0
1.229092242E1,2.849099934E-1,3.251325846E0,1.117493629E1,1.164179946E1
1.230091880E1,2.501940727E-1,3.932476282E0,1.058237171E1,1.129219013E1
1.231093999E1,-1.292868853E-1,3.263296843E0,9.500192642E0,1.004586888E1
1.232113758E1,-1.197100878E-1,3.423708439E0,9.424775124E0,1.002808537E1
1.233106388E1,-1.029506698E-1,3.933673382E0,9.484629631E0,1.026852396E1
1.234102103E1,-3.112462163E-2,2.322375536E0,7.429207802E0,7.783798908E0
1.235097460E1,9.457096457E-2,3.094505787E0,9.691728592E0,1.017420822E1
1.236094139E1,1.268926859E-1,3.763684988E0,1.092474270E1,1.155558001E1
1.237105528E1,-3.280056417E-1,2.902969599E0,7.587224960E0,8.130240021E0
1.238100823E1,2.238578647E-1,2.686294317E0,8.966285706E0,9.362722299E0
1.239105920E1,-1.019929886E0,2.913743496E0,1.069370174E1,1.113038252E1
1.240106419E1,1.675941236E-2,2.771288395E0,9.227252960E0,9.634444324E0
1.241099618E1,-2.729389966E-1,3.423708439E0,1.030105305E1,1.085854360E1
1.242096768E1,-1.675941199E-1,2.505532026E0,1.003409958E1,1.034354547E1
1.243090393E1,-5.398924947E-1,3.155557871E0,9.931148529E0,1.043440178E1
1.244099455E1,-2.406172752E-1,2.941276789E0,9.442731857E0,9.893138569E0
1.245105036E1,5.841852427E-1,2.996343374E0,9.141061783E0,9.637341777E0
1.246101927E1,-6.224924326E-2,3.075352192E0,8.892065048E0,9.409064082E0
1.247101872E1,-1.628057212E-1,2.755726099E0,9.326612473E0,9.726573510E0
1.248097995E1,-2.597708702E-1,3.403357744E0,1.012029076E1,1.068038435E1
1.249098306E1,4.022258818E-1,2.846705914E0,9.859322548E0,1.026994456E1
1.250095962E1,-3.555389643E-1,3.302801132E0,1.116775417E1,1.165133626E1
1.251094790E1,-3.663128614E-1,2.992752075E0,1.040280628E1,1.083093388E1
1.252099804E1,-3.627215624E-1,2.961627483E0,1.074637413E1,1.115290820E1
1.253095161E1,2.765302956E-1,3.035847664E0,1.071165848E1,1.113698646E1
1.254093089E1,1.747767180E-1,3.536235809E0,1.059554005E1,1.117143587E1
1.255100803E1,-1.819593310E-1,2.509123325E0,9.257181168E0,9.592925113E0
1.256092560E1,-2.609679997E-1,3.044227362E0,1.052251625E1,1.095713342E1
1.257094939E1,1.771709323E-1,2.993949175E0,9.897629738E0,1.034205954E1
1.258100928E1,-5.255272985E-1,3.464409828E0,9.994594574E0,1.059104504E1
1.259096323E1,5.530605912E-1,2.865859509E0,1.020289040E1,1.061216279E1
1.260094670E1,-8.643068075E-1,3.020285368E0,1.120606136E1,1.163808237E1
1.261090894E1,8.259996027E-2,3.657143116E0,1.044470501E1,1.106676923E1
1.262088706E1,-5.123591423E-1,2.719813108E0,9.451110840E0,9.848014589E0
1.263091512E1,-5.363011956E-1,3.296815634E0,1.124795914E1,1.173342222E1
1.264089165E1,5.446808934E-1,2.803610086E0,1.039682102E1,1.078196615E1
1.265092241E1,-2.513911724E-1,3.215412855E0,8.913613319E0,9.479165562E0
1.266093629E1,-4.884171486E-1,3.224989653E0,1.075475407E1,1.123849832E1
1.267095023E1,6.835445762E-1,2.967612982E0,1.070567322E1,1.113038180E1
1.268108870E1,-3.280056417E-1,3.303998232E0,8.796297073E0,9.402065423E0
1.269099944E1,-3.699041605E-1,2.747346401E0,9.670180321E0,1.005967836E1
1.270094681E1,-2.992752194E-1,2.740163803E0,1.081700325E1,1.116268886E1
1.271090399E1,-1.819593310E-1,3.187879562E0,9.651026726E0,1.016553010E1
1.272090158E1,-1.939303428E-1,2.753331900E0,1.074876881E1,1.109749865E1
1.273103138E1,-3.303998411E-1,3.269282341E0,9.751583099E0,1.029032283E1
1.274100328E1,2.011129409E-1,3.016694069E0,9.074024200E0,9.564455275E0
1.275096123E1,-5.398924947E-1,2.981978178E0,1.051293945E1,1.094100424E1
1.276099020E1,3.363853395E-1,3.028665066E0,1.013944435E1,1.058745951E1
1.277096569E1,-5.853823423E-1,3.258508444E0,9.405621529E0,9.971272040E0
1.278093893E1,-2.537853718E-1,3.134010077E0,1.016937160E1,1.064436682E1
1.279096655E1,1.244984865E-1,3.462015629E0,1.061708736E1,1.116797189E1
1.280101537E1,5.674257874E-1,3.229778051E0,8.720879555E0,9.317037002E0
1.281097077E1,-4.967968464E-1,2.898181200E0,9.372102737E0,9.822554204E0
1.282108697E1,-1.101332754E-1,2.851494312E0,1.040280628E1,1.078710006E1
1.283101607E1,2.597708702E-1,3.228580952E0,9.419986725E0,9.961293378E0
1.284109913E1,-2.202665508E-1,3.320757866E0,9.507374763E0,1.007303951E1
1.285100815E1,-4.129997790E-1,2.844311714E0,1.022922707E1,1.062533596E1
1.286095516E1,-2.777273953E-1,2.922123194E0,9.220070839E0,9.676034453E0
1.287092617E1,-2.501940727E-1,3.216609955E0,8.779537201E0,9.353579536E0
1.288092667E1,-1.903390288E-1,2.901772499E0,9.968258858E0,1.038377086E1
1.289100792E1,-3.351882398E-1,3.369838953E0,9.642647743E0,1.022002061E1
1.290096355E1,2.298433632E-1,3.020285368E0,9.182960510E0,9.669628504E0
1.291093936E1,-3.160346150E-1,3.280056238E0,9.908403397E0,1.044198758E1
1.292105877E1,-2.873041928E-1,3.071760893E0,1.018613148E1,1.064309791E1
1.293105697E1,1.556231081E-2,2.758120298E0,8.795100212E0,9.217443111E0
1.294106357E1,-4.177882075E-1,3.004723072E0,9.671378136E0,1.013599836E1
1.295105788E1,2.442085743E-1,3.002328873E0,1.052850151E1,1.095093423E1
1.296101603E1,-1.125274822E-1,3.606864929E0,9.538499832E0,1.019828986E1
1.297098210E1,1.304839998E-1,2.768894196E0,8.501810074E0,8.942291411E0
1.298097214E1,-5.422866940E-1,2.606088638E0,9.821015358E0,1.017536808E1
1.299096316E1,-1.053448766E-1,2.789244890E0,8.785523415E0,9.218264819E0
1.300098617E1,-4.321534038E-1,3.092111588E0,9.751583099E0,1.023920327E1
1.301103417E1,-2.274491638E-2,3.226186752E0,9.703699112E0,1.022597549E1
1.302097267E1,-5.734112859E-1,2.882618904E0,9.136273384E0,9.597384206E0
1.303111342E1,1.340752989E-1,3.302801132E0,1.017176628E1,1.069538689E1
1.304102280E1,-2.394201607E-2,3.031059265E0,1.010472870E1,1.054957040E1
1.305096349E1,-2.466027737E-1,3.173514366E0,9.835380554E0,1.033763595E1
1.306106683E1,-4.273650050E-1,3.028665066E0,9.993397713E0,1.045100238E1
1.307098600E1,-3.950432837E-1,3.022679567E0,1.011191082E1,1.056141048E1
1.308099759E1,-7.206547260E-1,3.447650433E0,1.053688145E1,1.110997333E1
1.309093688E1,-2.861070931E-1,3.032256365E0,9.971850395E0,1.042661193E1
1.310097903E1,-3.770867586E-1,3.123236179E0,1.016578007E1,1.064142298E1
1.311095610E1,2.190694511E-1,3.330334663E0,9.769539833E0,1.032390570E1
1.312102864E1,-2.573766708E-1,2.993949175E0,9.199720383E0,9.678059182E0
1.313096941E1,3.591302410E-2,3.004723072E0,9.615114212E0,1.007373177E1
1.314094129E1,7.900865376E-2,3.025073767E0,9.700108528E0,1.016117213E1
1.315091273E1,-8.391677141E-1,3.295618534E0,1.008078671E1,1.063896445E1
1.316098395E1,6.584054977E-2,2.846705914E0,9.775525093E0,1.018179554E1
1.317105007E1,-8.978256583E-2,2.573766708E0,1.001255131E1,1.033844861E1
1.318097012E1,-7.649474144E-1,3.441664934E0,1.022324085E1,1.081410447E1
1.319095815E1,-9.576806426E-2,2.910152197E0,1.027351952E1,1.067817216E1
1.320099316E1,-1.927332431E-1,2.828749418E0,1.009994030E1,1.049036527E1
1.321095617E1,-2.573766708E-1,3.822343111E0,1.109832191E1,1.174092411E1
1.322090817E1,-1.675941199E-1,2.513911724E0,9.903614998E0,1.021907187E1
1.323090517E1,-4.046200812E-1,3.706224203E0,1.006282997E1,1.073127962E1
1.324091768E1,4.656722248E-1,2.705447912E0,9.776722908E0,1.015483185E1
1.325092793E1,-3.447650373E-1,2.991554976E0,1.055124664E1,1.097255986E1
1.326107805E1,-3.627215624E-1,3.228580952E0,1.037527275E1,1.087205530E1
1.327097361E1,-5.195417404E-1,3.426102638E0,1.060631371E1,1.115804612E1
1.328164639E1,-6.165069342E-1,2.835932016E0,1.019451046E1,1.059955823E1
1.329126529E1,-3.890577853E-1,3.124433279E0,1.027112484E1,1.074287926E1
1.330111023E1,-5.638344884E-1,3.233369350E0,1.008318043E1,1.060391976E1
1.331112220E1,-9.337386489E-2,3.102885485E0,9.406818390E0,9.905798768E0
1.332103569E1,3.651157618E-1,3.234566450E0,9.931148529E0,1.045100190E1
1.333104593E1,-3.938461840E-1,3.070563793E0,9.926360130E0,1.039788932E1
1.334099655E1,-1.783680320E-1,3.096899986E0,9.503783226E0,9.997224629E0
1.335095737E1,-5.279214978E-1,2.638410330E0,9.639056206E0,1.000756288E1
1.336091627E1,-1.795651317E-1,3.150769472E0,1.072003841E1,1.117491904E1
1.337092822E1,-7.625532150E-1,3.185485363E0,1.029746151E1,1.080585572E1
1.338094970E1,-6.823474914E-2,2.814383984E0,1.029386997E1,1.067188700E1
1.339093744E1,-9.923965931E-1,3.488351822E0,1.119049835E1,1.176353275E1
1.340094181E1,-4.010287821E-1,3.002328873E0,1.000058079E1,1.044923054E1
1.341094399E1,3.459621370E-1,3.107673883E0,9.991003990E0,1.046888186E1
1.342095108E1,-3.914519846E-1,2.693476915E0,1.028788471E1,1.064183370E1
1.343096063E1,-4.405331016E-1,3.385401249E0,9.787496567E0,1.036581401E1
1.344097340E1,-2.681505978E-1,2.845508814E0,9.194931984E0,9.628893983E0
1.345097979E1,-3.411737382E-1,3.101688385E0,9.998186111E0,1.047380522E1
1.346098448E1,-7.769184709E-1,3.300406933E0,1.040998936E1,1.094824948E1
1.347094633E1,-3.950432688E-2,2.920926094E0,8.735244751E0,9.210747565E0
1.348098275E1,-2.693476975E-1,2.965218782E0,9.527725220E0,9.982114930E0
1.349096046E1,-5.051765442E-1,3.339911461E0,1.103846741E1,1.154374179E1
1.350098132E1,3.651157618E-1,3.026270866E0,9.354146004E0,9.838275882E0
1.351095475E1,-4.584896266E-1,3.026270866E0,9.174580574E0,9.671683246E0
1.352106446E1,-1.101332754E-1,2.886210203E0,1.035252857E1,1.074789219E1
1.353097982E1,-5.315127969E-1,2.657563925E0,9.490615845E0,9.870002076E0
1.354103900E1,-7.050924301E-1,2.673126221E0,9.203310966E0,9.609562522E0
1.355099309E1,-1.999158412E-1,3.250128746E0,9.704896927E0,1.023661700E1
1.356101063E1,8.379705995E-2,2.959233284E0,9.568427086E0,1.001593133E1
1.357103540E1,-5.458779931E-1,2.803610086E0,9.521739960E0,9.940912642E0
1.358111479E1,-8.307880163E-1,3.934870481E0,1.170764637E1,1.237911136E1
1.359112498E1,-2.705447972E-1,3.174711466E0,1.059554005E1,1.106424224E1
1.360100808E1,-4.572925270E-1,3.175908566E0,9.023746490E0,9.577239289E0
1.361094163E1,-2.489969730E-1,2.294842243E0,9.578003883E0,9.852231159E0
1.362103040E1,2.154781483E-2,3.086126089E0,9.211690903E0,9.714931180E0
1.363098479E1,9.349357486E-1,3.118447781E0,8.416815758E0,9.024500480E0
1.364094198E1,1.915361360E-2,3.202244759E0,8.743624687E0,9.311590145E0
1.365092458E1,-6.392518282E-1,2.645592928E0,8.175002098E0,8.616174566E0
1.366092138E1,5.267243832E-2,3.592499733E0,1.082179165E1,1.140263142E1
1.367101078E1,-4.752490520E-1,3.165134668E0,1.060990524E1,1.108214909E1
1.368095448E1,-1.131260276E0,2.972401381E0,9.515754700E0,1.003317035E1
1.369091733E1,-5.937620401E-1,2.340332270E0,9.876082420E0,1.016694214E1
1.370108575E1,-7.146692276E-1,2.273294449E0,9.500192642E0,9.794502539E0
1.371099896E1,-2.298433632E-1,3.070563793E0,8.681375504E0,9.211268676E0
1.372101107E1,6.069301367E-1,2.477998734E0,7.727285862E0,8.137554221E0
1.373245962E1,-5.853823423E-1,3.737348795E0,8.550890923E0,9.350303956E0
1.374170090E1,4.644751251E-1,2.997540474E0,8.213309288E0,8.755537419E0
1.375141154E1,4.225766063E-1,3.711012602E0,1.021965027E1,1.088078293E1
1.376122786E1,-5.781996846E-1,2.709039211E0,9.053673744E0,9.467957361E0
1.377106252E1,-6.955155730E-1,3.581725836E0,1.028788471E1,1.091572598E1
1.378110685E1,-8.643068075E-1,2.521094322E0,9.925163269E0,1.027676062E1
1.379103701E1,-7.625532150E-1,2.606088638E0,1.116775417E1,1.149312484E1
1.380105809E1,-7.805097699E-1,3.128024578E0,1.162504673E1,1.206380722E1
1.381104563E1,3.507505357E-1,3.230975151E0,8.747216225E0,9.331453158E0
1.382095691E1,5.638344884E-1,3.082534790E0,8.817844391E0,9.358114648E0
1.383096404E1,3.615244627E-1,3.732560396E0,9.332598686E0,1.005783800E1
1.384109611E1,2.262520641E-1,3.010708570E0,8.391676903E0,8.918284439E0
1.385100264E1,-7.685387731E-1,2.937685490E0,8.133103371E0,8.681475584E0
1.386092141E1,-1.227028370E0,2.673126221E0,8.972270966E0,9.442078621E0
1.387092829E1,-7.721300721E-1,2.528276920E0,1.005445004E1,1.039616922E1
1.388090473E1,-6.105214357E-1,2.855085611E0,1.019929886E1,1.060895600E1
1.389107046E1,-6.835445762E-1,2.632424831E0,9.882067680E0,1.024949537E1
1.390099082E1,-3.399766386E-1,2.512714624E0,9.803058624E0,1.012567416E1
1.391094550E1,-2.908954918E-1,2.936488390E0,1.013944435E1,1.056010966E1
1.392118684E1,-2.226607651E-1,3.234566450E0,9.380482674E0,9.924991341E0
1.393105100E1,2.035071403E-1,3.080140591E0,9.230844498E0,9.733302181E0
1.394105559E1,-2.980781198E-1,3.199850559E0,1.001135445E1,1.051451911E1
1.395109138E1,-6.344634295E-2,3.319560766E0,9.006986618E0,9.599443581E0
1.396104428E1,4.189853072E-1,2.760514498E0,1.007839203E1,1.045801008E1
1.397105323E1,-7.134721279E-1,3.159149170E0,1.022563553E1,1.072627092E1
1.398102720E1,3.339911401E-1,3.260902643E0,9.527725220E0,1.007584160E1
1.399093169E1,1.125274822E-1,2.378639460E0,1.001733971E1,1.029648886E1
1.400099043E1,-7.781155705E-1,3.274070740E0,1.086129570E1,1.137069687E1
1.401095530E1,-1.256955862E-1,3.055001259E0,1.039203262E1,1.083250544E1
1.402099574E1,-5.111620426E-1,2.961627483E0,8.947132111E0,9.438416021E0
1.403095146E1,-5.231330991E-1,2.870647907E0,1.001015759E1,1.042677047E1
1.404103782E1,-1.436520964E-1,3.224989653E0,1.024718285E1,1.074364698E1
1.405095700E1,-2.621650994E-1,3.110068083E0,9.150638580E0,9.668269775E0
1.406094759E1,4.429273307E-2,3.215412855E0,1.017894840E1,1.067482235E1
1.407090488E1,-4.249708056E-1,2.936488390E0,9.837775230E0,1.027547496E1
1.408091003E1,-5.997475386E-1,2.797624588E0,1.010592556E1,1.050314866E1
1.409140160E1,-6.105214357E-1,3.002328873E0,1.051653099E1,1.095372718E1
1.410119589E1,-2.669534981E-1,3.236960649E0,9.835380554E0,1.035779364E1
1.411104553E1,-2.262520641E-1,2.712630510E0,9.510966301E0,9.892827415E0
1.412104585E1,-4.668693244E-1,2.932897091E0,1.066616821E1,1.107190122E1
1.413100002E1,2.394201607E-2,3.743334293E0,1.049977112E1,1.114712153E1
1.414094760E1,4.728548229E-1,2.624045134E0,9.464279175E0,9.832689604E0
1.415093839E1,-2.202665508E-1,3.260902643E0,1.064940929E1,1.113965537E1
1.416108728E1,-1.556231081E-1,2.831143618E0,1.053688145E1,1.091171221E1
1.417099473E1,-1.316810958E-2,3.026270866E0,1.001255131E1,1.045990786E1
1.418104245E1,2.573766708E-1,2.604891539E0,9.977835655E0,1.031546931E1
1.419099431E1,-2.705447972E-1,2.570175409E0,1.023162079E1,1.055296452E1
1.420103074E1,-1.304839998E-1,2.893392801E0,1.034534550E1,1.074313369E1
1.421097596E1,-4.991910458E-1,2.705447912E0,1.016338634E1,1.052915296E1
1.422097257E1,-8.463503122E-1,3.238157749E0,1.071525002E1,1.122579874E1
1.423108587E1,-5.985504016E-3,3.050212860E0,1.047104073E1,1.090626096E1
1.424103052E1,-6.368576288E-1,3.055001259E0,1.029746151E1,1.075994117E1
1.425097435E1,-5.135562420E-1,3.337517262E0,9.768342972E0,1.033553510E1
1.426097526E1,2.358288616E-1,3.008314371E0,9.943120003E0,1.039091940E1
1.427102372E1,-2.190694511E-1,3.161543369E0,1.028070164E1,1.075807483E1
1.428096995E1,-5.243301988E-1,2.882618904E0,9.471462250E0,9.914283184E0
1.429103506E1,2.525882721E-1,3.033453465E0,9.646238327E0,1.011511516E1
1.430099712E1,-9.636662006E-1,3.011905670E0,1.040520096E1,1.087512921E1
1.431107115E1,1.077390742E-2,2.906560898E0,9.982624054E0,1.039716285E1
1.432106566E1,4.788403399E-3,2.983175278E0,9.471462250E0,9.930153816E0
1.433100292E1,-3.615244627E-1,2.883816004E0,1.032379818E1,1.072510622E1
1.434096655E1,-2.597708702E-1,2.948459387E0,9.973047256E0,1.040300751E1
1.435103536E1,4.058171809E-1,3.149572372E0,9.757569313E0,1.026131827E1
1.436102027E1,-5.279214978E-1,3.223792553E0,9.406818390E0,9.957899967E0
1.437106672E1,-6.033388376E-1,3.049015760E0,9.916783333E0,1.039245431E1
1.438100645E1,-1.316810958E-2,2.983175278E0,8.730456352E0,9.226070467E0
1.439103281E1,-1.879448295E-1,2.845508814E0,1.006881523E1,1.046485947E1
1.440098049E1,-2.980781198E-1,3.337517262E0,9.915586472E0,1.046645724E1
1.441095834E1,-1.484405100E-1,2.477998734E0,9.222464561E0,9.550725883E0
1.442098226E1,-4.297592044E-1,3.371036053E0,9.897629738E0,1.046478148E1
1.443097472E1,-2.645592988E-1,2.725798607E0,9.026140213E0,9.432453382E0
1.444098294E1,-3.088520169E-1,3.497928619E0,9.920374870E0,1.052353229E1
1.445097806E1,-4.465186298E-1,2.795230389E0,8.737639427E0,9.184717446E0
1.446104112E1,1.999158412E-1,3.112462282E0,9.332598686E0,9.839958640E0
1.447098715E1,-3.040636182E-1,3.134010077E0,9.327810287E0,9.844923494E0
1.448109666E1,-1.065419763E-1,2.545036316E0,8.042123795E0,8.435894509E0
1.449168342E1,-4.165911078E-1,2.869450808E0,9.931148529E0,1.034577243E1
1.450131180E1,-1.544260085E-1,3.515885115E0,9.782708168E0,1.039647414E1
1.451110999E1,6.464344263E-2,2.347514868E0,8.274360657E0,8.601165567E0
1.452101108E1,-5.949591398E-1,3.270479441E0,9.774328232E0,1.032412246E1
1.453099913E1,1.256955862E-1,2.531868219E0,9.810241699E0,1.013247247E1
1.454093315E1,-1.233013868E-1,3.488351822E0,9.980229378E0,1.057302133E1
1.455092566E1,-4.201824069E-1,3.013102770E0,8.243236542E0,8.786711002E0
1.456091292E1,-3.232172430E-1,2.580949545E0,9.075222015E0,9.440626280E0
1.457093605E1,-2.214636505E-1,3.311181068E0,1.028309631E1,1.080532443E1
1.458101661E1,-1.268926859E-1,3.149572372E0,9.197325706E0,9.722484664E0
1.459100689E1,-2.166752517E-1,3.230975151E0,8.916007042E0,9.485848943E0
1.460103454E1,-1.771709323E-1,3.035847664E0,9.797073364E0,1.025818732E1
1.461096086E1,-3.363853395E-1,2.834734917E0,9.143456459E0,9.578709368E0
1.462097602E1,-1.963245422E-1,2.687491417E0,8.923190117E0,9.321184222E0
1.463096510E1,2.932897210E-1,3.010708570E0,1.002571964E1,1.047212678E1
1.464099564E1,1.783680320E-1,2.668337822E0,9.038111687E0,9.425460453E0
1.465101340E1,-4.357447028E-1,2.937685490E0,9.879673004E0,1.031638542E1
1.466093279E1,-6.224924326E-1,2.719813108E0,9.894038200E0,1.027992568E1
1.467093198E1,3.998316824E-1,3.675099611E0,9.588777542E0,1.027671530E1
1.468099008E1,-5.303156972E-1,2.212242365E0,9.354146004E0,9.626801051E0
1.469094813E1,-7.254431248E-1,3.268085241E0,1.026753426E1,1.079948650E1
1.470094965E1,-5.674257874E-1,3.027467966E0,9.715670586E0,1.019224162E1
1.471090791E1,-4.788403399E-3,3.468001127E0,9.430760384E0,1.004819865E1
1.472102004E1,-3.711012602E-1,2.922123194E0,9.538499832E0,9.982960440E0
1.473098461E1,-4.393360019E-1,2.625242233E0,1.040041256E1,1.073561802E1
1.474103489E1,-6.009446383E-1,3.385401249E0,9.913191795E0,1.049254248E1
1.475099553E1,6.344634295E-2,2.566584110E0,9.605537415E0,9.942722387E0
1.476106936E1,-2.059013397E-1,2.990357876E0,1.008916569E1,1.052501306E1
1.477104226E1,4.022258818E-1,2.959233284E0,9.139864922E0,9.615403168E0
1.478098522E1,2.920926213E-1,2.285265446E0,8.935160637E0,9.227396809E0
1.479092570E1,-7.769184709E-1,3.578134537E0,1.117733097E1,1.176177609E1
1.480094694E1,4.285621047E-1,3.222595453E0,9.634267807E0,1.016798422E1
1.481095956E1,-7.781155407E-2,3.381809950E0,1.023760605E1,1.078198826E1
1.482119787E1,-5.506663918E-1,2.624045134E0,1.073679733E1,1.106651089E1
1.483117852E1,-5.135562420E-1,3.380612850E0,1.068891335E1,1.122252876E1
1.484104785E1,2.741360962E-1,2.476801634E0,7.985859871E0,8.365623396E0
1.485103201E1,3.471592367E-1,1.632845521E0,1.123958015E1,1.136287226E1
1.486096909E1,-2.023100406E-1,4.938041210E0,1.470518684E1,1.551346836E1
1.487094364E1,-1.831564307E-1,3.241749048E0,6.794744492E0,7.530673003E0
1.488103941E1,-4.644751251E-1,2.317587137E0,8.449137688E0,8.773532638E0
1.489101279E1,-4.441244006E-1,3.144783974E0,1.297537613E1,1.335841676E1
1.490100848E1,5.374982953E-1,3.058592558E0,8.798690796E0,9.330640523E0
1.491109533E1,-1.215057373E0,3.137601376E0,1.129584408E1,1.178630562E1
1.492101975E1,4.070142806E-1,2.647987127E0,1.042914295E1,1.076775367E1
1.493095096E1,-3.567360640E-1,3.068169594E0,1.062067890E1,1.106072989E1
1.494092357E1,-3.758896589E-1,3.187879562E0,1.137126064E1,1.181564377E1
1.495093037E1,-8.212111592E-1,2.980781078E0,1.091516590E1,1.134461503E1
1.496090827E1,8.379706182E-3,2.224213362E0,9.466673851E0,9.724459322E0
1.497087672E1,-4.884171486E-1,2.881421804E0,1.132217979E1,1.169328432E1
1.498101445E1,-1.233013868E-1,3.365050554E0,1.057279491E1,1.109606961E1
1.499094781E1,1.029506683E0,3.428496838E0,8.775946617E0,9.477959359E0
1.500092299E1,1.687912196E-1,2.458845139E0,8.432378769E0,8.785181933E0
1.501098258E1,-6.069301367E-1,2.649184227E0,9.427168846E0,9.811118882E0
1.502094138E1,6.751648784E-1,3.089717388E0,1.114022064E1,1.158044546E1
1.503101828E1,-7.302315235E-1,4.152742863E0,1.051293945E1,1.132697697E1
1.504120973E1,-5.374982953E-1,2.639607430E0,8.656236649E0,9.065697144E0
1.505102895E1,-7.194576263E-1,3.216609955E0,1.145266342E1,1.191753743E1
1.506095356E1,1.484405100E-1,2.531868219E0,1.146104336E1,1.173830934E1
1.507092037E1,8.140286058E-2,2.911349297E0,1.060152531E1,1.099431307E1
1.508095177E1,-5.339069963E-1,3.046621561E0,1.103846741E1,1.146362605E1
1.509092447E1,9.337386489E-2,3.180696964E0,9.824606895E0,1.032707376E1
1.510091682E1,1.915361360E-2,3.365050554E0,1.079665279E1,1.130891877E1
1.511164600E1,3.483563364E-1,3.136404276E0,1.026753426E1,1.074153823E1
1.512125559E1,-1.951274425E-1,3.471592426E0,9.864110947E0,1.045900155E1
1.513104738E1,-3.160346150E-1,2.934094191E0,8.973467827E0,9.446264417E0
1.514099678E1,-5.327098966E-1,2.815581083E0,9.339780807E0,9.769482187E0
1.515093848E1,-2.513911761E-2,2.426523447E0,9.319430351E0,9.630183284E0
1.516092333E1,-4.991910458E-1,3.427299738E0,1.027471638E1,1.084275665E1
1.517087875E1,7.182604820E-2,2.275688648E0,9.127894402E0,9.407570038E0
1.518086696E1,-8.786720037E-1,3.184288263E0,9.138668060E0,9.717356130E0
1.519084657E1,7.661445141E-1,1.990778685E0,1.066975975E1,1.088089842E1
1.520088287E1,-2.873042040E-2,3.236960649E0,9.139864922E0,9.696178137E0
1.521089452E1,-5.865794048E-2,2.880224705E0,8.762778282E0,9.224175753E0
1.522089435E1,3.351882473E-2,2.844311714E0,1.056441498E1,1.094066252E1
1.523089776E1,-2.705447972E-1,3.276464939E0,9.922768593E0,1.045321738E1
1.524089197E1,2.142810524E-1,2.741360903E0,9.153033257E0,9.557143599E0
1.525089707E1,-4.153940082E-1,3.224989653E0,1.074757099E1,1.122868615E1
1.526088812E1,2.513911761E-2,3.444059134E0,9.737217903E0,1.032838747E1
1.527089965E1,7.781155407E-2,2.573766708E0,8.797493935E0,9.166582200E0
1.528092541E1,-8.463503122E-1,3.700238705E0,1.103128433E1,1.166607515E1
1.529092179E1,-1.831564307E-1,3.216609955E0,9.436745644E0,9.971574310E0
1.530091799E1,2.118868530E-1,3.331531763E0,8.024167061E0,8.690872048E0
1.531092908E1,2.992752194E-1,2.227804661E0,9.319430351E0,9.586681456E0
1.532087663E1,-2.896983922E-1,2.880224705E0,1.008916569E1,1.049623188E1
1.533091690E1,-3.112462163E-2,2.881421804E0,8.544905663E0,9.017703318E0
1.534091554E1,-3.914519846E-1,2.667140722E0,9.103952408E0,9.494673440E0
1.535090486E1,-2.825157940E-1,2.788047791E0,1.033337498E1,1.070661777E1
1.536090352E1,-5.710170865E-1,2.540247917E0,8.148665428E0,8.554511573E0
1.537091185E1,-3.076549172E-1,2.973598480E0,8.971074104E0,9.456062080E0
1.538089651E1,-6.907271743E-1,2.912546396E0,9.478644371E0,9.940056823E0
1.539090484E1,7.422025502E-2,3.163937569E0,8.516175270E0,9.085221561E0
1.540090351E1,-9.337386489E-2,3.117250681E0,8.495824814E0,9.050138659E0
1.541197434E1,1.436521020E-2,2.972401381E0,9.234436035E0,9.701040419E0
1.542146676E1,3.854664862E-1,2.880224705E0,9.574412346E0,1.000568091E1
1.543116447E1,1.424549967E-1,2.551021814E0,9.329007149E0,9.672558095E0
1.544101082E1,8.379705995E-2,2.858676910E0,9.714473724E0,1.012670012E1
1.545094550E1,-4.489128292E-1,2.943670988E0,1.061469364E1,1.102444750E1
1.546094134E1,-2.549824715E-1,3.040636063E0,1.009754562E1,1.054850280E1
1.547093126E1,-3.471592367E-1,3.143586874E0,1.025556278E1,1.073215849E1
1.548098372E1,-3.112462163E-2,3.063380957E0,9.102754593E0,9.604447553E0
1.549093995E1,-1.927332431E-1,3.318363667E0,9.597157478E0,1.015648144E1
1.550087956E1,5.410895944E-1,2.680308819E0,9.479841232E0,9.866317606E0
1.551089137E1,-5.626374111E-2,3.422511339E0,9.935936928E0,1.050902432E1
1.552086627E1,-9.935937077E-2,2.130839586E0,8.452729225E0,8.717739442E0
1.553086272E1,-9.983820915E-1,2.868253708E0,1.063743782E1,1.106249201E1
1.554083995E1,9.816227108E-2,2.997540474E0,1.027232265E1,1.070119140E1
1.555086756E1,2.513911761E-2,2.227804661E0,8.937555313E0,9.211060773E0
1.556094487E1,-3.076549172E-1,3.359065056E0,1.057518864E1,1.110011641E1
1.557089952E1,-1.472434103E-1,2.609679937E0,9.815030098E0,1.015711208E1
1.558087335E1,-9.097966552E-2,2.985569477E0,9.821015358E0,1.026519581E1
1.559086776E1,-1.077390760E-1,2.984372377E0,1.024478912E1,1.067116631E1
1.560088097E1,1.699883193E-1,3.329137564E0,1.013585281E1,1.066993745E1
1.561088907E1,2.873042040E-2,2.491166830E0,9.153033257E0,9.486029486E0
1.562087662E1,-3.375824392E-1,3.064578056E0,9.959878922E0,1.042615887E1
1.563088740E1,-1.017535701E-1,2.811989784E0,9.738415718E0,1.013678356E1
1.564088729E1,-1.663970202E-1,2.947262287E0,1.028549004E1,1.070071718E1
1.565088123E1,-5.327098966E-1,2.783259392E0,1.031302357E1,1.069526848E1
1.566086720E1,-1.017535701E-1,2.896984100E0,1.061948204E1,1.100800933E1
1.567098869E1,1.699883193E-1,2.920926094E0,1.092234802E1,1.130744850E1
1.568093193E1,-8.140286058E-2,3.065775394E0,1.059314537E1,1.102816095E1
1.569089905E1,-3.782838583E-1,3.240551949E0,1.082897472E1,1.130977317E1
1.570085762E1,-2.178723514E-1,2.558204412E0,1.005085850E1,1.037360278E1
1.571087840E1,-4.788403511E-1,3.519476414E0,1.051892471E1,1.110242223E1
1.572085678E1,4.548983276E-1,2.741360903E0,9.668983459E0,1.006037938E1
1.573171998E1,4.896142483E-1,2.918531895E0,1.000297451E1,1.043154109E1
1.574131258E1,4.896142483E-1,2.918531895E0,1.000297451E1,1.043154109E1
1.575108288E1,-3.914519846E-1,2.804807186E0,9.485827446E0,9.899550512E0
1.576100653E1,-1.496376097E-1,3.039438963E0,1.000656605E1,1.045906041E1
1.577092635E1,-1.580173075E-1,3.011905670E0,9.414001465E0,9.885341108E0
1.578092176E1,-7.709329724E-1,3.059789658E0,9.370905876E0,9.887898024E0
1.579093997E1,-1.951274425E-1,3.138798475E0,1.007958889E1,1.055879931E1
1.580097857E1,-2.669534981E-1,2.947262287E0,9.498994827E0,9.949297558E0
1.581094987E1,3.471592441E-2,3.251325846E0,9.789890289E0,1.031572958E1
1.582090852E1,1.412578970E-1,2.643198729E0,9.679757118E0,1.003514580E1
1.583091435E1,2.322375625E-1,2.533065319E0,1.020648193E1,1.051867994E1
1.584095026E1,-3.280056417E-1,3.315969467E0,1.046864700E1,1.098616454E1
1.585092622E1,-3.028665185E-1,2.353500366E0,9.453505516E0,9.746766574E0
1.586091720E1,-1.304839998E-1,3.539827108E0,1.014183807E1,1.074263848E1
1.587090469E1,-3.004723191E-1,3.051409960E0,9.484629631E0,9.967927849E0
1.588091893E1,-9.696517140E-2,2.677914619E0,9.555258751E0,9.923890303E0
1.589091105E1,-3.986345828E-1,2.962824583E0,9.530119896E0,9.988014030E0
1.590092461E1,-7.302315533E-2,3.093308687E0,8.742427826E0,9.273830671E0
1.591101590E1,3.603273630E-1,2.964021683E0,9.027337074E0,9.508316097E0
1.592096454E1,1.244984865E-1,2.568978310E0,9.583989143E0,9.923104218E0
1.593092486E1,-1.903390288E-1,2.874239206E0,9.422380447E0,9.852854067E0
1.594087952E1,-6.979097724E-1,2.841917515E0,8.960299492E0,9.426056450E0
1.595087434E1,1.963245422E-1,2.938882589E0,9.700108528E0,1.013743950E1
1.596099976E1,-3.902548850E-1,2.655169725E0,9.831789017E0,1.019148176E1
1.597099097E1,-6.703764945E-2,2.840720415E0,9.872490883E0,1.027327907E1
1.598112607E1,-4.153940082E-1,3.199850559E0,1.027471638E1,1.076946574E1
1.599098812E1,3.016694188E-1,3.235763550E0,1.036090755E1,1.085861757E1
1.600103465E1,-3.591302633E-1,3.572149038E0,9.339780807E0,1.000603462E1
1.601101541E1,-5.422866940E-1,1.884236693E0,8.582015991E0,8.803148371E0
1.602093779E1,1.939303428E-1,3.025073767E0,8.226476669E0,8.767188755E0
1.603092649E1,-2.992752194E-1,3.205836058E0,8.371326447E0,8.969172591E0
1.604093333E1,-5.147533491E-2,2.419340849E0,9.889249802E0,1.018101770E1
1.605095975E1,-4.932055473E-1,2.841917515E0,1.019211674E1,1.059240249E1
1.606098196E1,-6.703764945E-2,3.307589531E0,9.867702484E0,1.040750666E1
1.607100857E1,1.436521020E-2,2.335543871E0,9.339780807E0,9.627381631E0
1.608104887E1,-9.636662006E-1,2.756923199E0,1.064342403E1,1.103683620E1
1.609098252E1,2.741360962E-1,3.017891169E0,9.823410034E0,1.028018494E1
1.610096035E1,-4.225766063E-1,3.077746391E0,8.977059364E0,9.499404648E0
1.611093476E1,-2.717418969E-1,3.244143248E0,1.036210537E1,1.086147029E1
1.612110747E1,-7.062894851E-2,3.232172251E0,9.636661530E0,1.016450546E1
1.613107482E1,-3.663128614E-1,3.060986757E0,8.841787338E0,9.363814841E0
1.614111950E1,2.849099934E-1,3.007117271E0,9.917980194E0,1.036775092E1
1.615104584E1,4.692635238E-1,2.414552450E0,9.301473618E0,9.621210072E0
1.616106151E1,-1.508347094E-1,3.099294186E0,9.242815971E0,9.749770389E0
1.617099384E1,-2.430114746E-1,2.126051188E0,9.489418030E0,9.727702852E0
1.618101551E1,-4.764461517E-1,3.366247654E0,1.078108978E1,1.130444696E1
1.619097534E1,-2.214636505E-1,2.846705914E0,1.050096893E1,1.088223916E1
1.620102476E1,-5.219359994E-1,3.098097086E0,1.085411358E1,1.129966390E1
1.621097647E1,-9.301473498E-1,3.260902643E0,1.089122391E1,1.140690222E1
1.622098232E1,-7.182604820E-2,2.975992680E0,1.052012253E1,1.093319118E1
1.623093775E1,-8.738835901E-2,2.902969599E0,1.075235939E1,1.113768835E1
1.624088496E1,-2.753331959E-1,3.130418777E0,1.006881523E1,1.054781353E1
1.625087657E1,-1.017535701E-1,2.582146645E0,9.752780914E0,1.008932954E1
1.626092437E1,-2.070984542E-1,3.429693937E0,1.071525002E1,1.125265627E1
1.627101827E1,3.016694188E-1,2.501940727E0,9.536105156E0,9.863468629E0
1.628113822E1,-2.873041928E-1,2.778470993E0,1.048420906E1,1.084993476E1
1.629101320E1,-1.580173075E-1,3.210624456E0,9.998186111E0,1.050222854E1
1.630128969E1,-6.093243361E-1,2.997540474E0,1.097023201E1,1.138870122E1
1.631118393E1,-3.687070608E-1,3.084928989E0,1.200333023E1,1.239889787E1
1.632111355E1,-1.256955862E-1,3.446453333E0,1.026753426E1,1.083125568E1
1.633100786E1,-7.912836671E-1,2.742558002E0,9.647436142E0,1.006085376E1
1.634094702E1,1.412578970E-1,2.555810213E0,1.099178028E1,1.128589179E1
1.635093810E1,-1.244984865E-1,3.533841610E0,1.056920338E1,1.114502564E1
1.636101864E1,2.250549644E-1,3.068169594E0,8.789113998E0,9.311972899E0
1.637096541E1,6.165069342E-1,2.643198729E0,8.932766914E0,9.336000485E0
1.638098379E1,-9.935937077E-2,3.314772367E0,9.170989990E0,9.752161070E0
1.639096098E1,2.896983922E-1,1.926135302E0,8.263586998E0,8.490040779E0
1.640101658E1,-4.381389022E-1,4.071340084E0,1.199016190E1,1.267011279E1
1.641094138E1,-6.512228847E-1,3.216609955E0,1.039801788E1,1.090364374E1
1.642102728E1,-9.062053561E-1,2.614468336E0,8.360552788E0,8.806559813E0
1.643096523E1,-9.074024558E-1,3.031059265E0,1.190157700E1,1.231495978E1
1.644095670E1,-1.508347094E-1,2.425326347E0,1.049857426E1,1.077613198E1
1.645104994E1,1.221042871E-1,2.876633406E0,9.346963882E0,9.780371313E0
1.646101706E1,-3.914519846E-1,3.331531763E0,1.108515358E1,1.158157884E1
1.647093812E1,-7.781155407E-2,2.856282711E0,9.343372345E0,9.770517506E0
1.648092865E1,-1.197100850E-3,3.491943121E0,9.561244011E0,1.017895158E1
1.649093741E1,-5.662286878E-1,2.923320293E0,9.370905876E0,9.832613763E0
1.650091179E1,-3.280056417E-1,3.124433279E0,8.831012726E0,9.373177518E0
1.651187748E1,-2.717418969E-1,2.746149302E0,8.784325600E0,9.207581435E0
1.652136183E1,-1.915361360E-2,2.369062662E0,8.817844391E0,9.130564301E0
1.653120650E1,-7.015010715E-1,2.591723442E0,1.018852520E1,1.053637413E1
1.654104084E1,-7.302315533E-2,2.716221809E0,9.291896820E0,9.681040224E0
1.655096101E1,-1.268926859E-1,3.203441858E0,8.695740700E0,9.267904176E0
1.656099909E1,-3.459621370E-1,2.139219284E0,9.381679535E0,9.628699800E0
1.657099863E1,-3.447650373E-1,2.867056608E0,9.933543205E0,1.034476472E1
1.658097240E1,-5.746083856E-1,3.076549292E0,9.672574997E0,1.016631877E1
1.659093179E1,-1.807622313E-1,3.428496838E0,1.059673691E1,1.113903491E1
1.660092698E1,-4.920084476E-1,2.821566820E0,9.540893555E0,9.961524053E0
1.661112208E1,2.070984542E-1,2.876633406E0,9.816226959E0,1.023113978E1
1.662103563E1,-1.352723986E-1,2.735375404E0,1.032499504E1,1.068204568E1
1.663125140E1,-2.250549644E-1,2.868253708E0,9.827000618E0,1.023950537E1
1.664105329E1,-9.576806426E-2,2.681505919E0,9.344569206E0,9.722171525E0
1.665100173E1,-4.177882075E-1,3.190273762E0,1.012148762E1,1.062058874E1
1.666102345E1,-2.262520641E-1,2.535459518E0,9.502586365E0,9.837626369E0
1.667097032E1,-6.703764945E-2,3.429693937E0,9.888052940E0,1.046617817E1
1.668090075E1,-6.212953329E-1,2.545036316E0,9.872490883E0,1.021417123E1
1.669089296E1,-2.394201607E-2,3.527856112E0,1.001614285E1,1.061929656E1
1.670096457E1,-2.956839204E-1,2.246958256E0,9.160215378E0,9.436408011E0
1.671096387E1,-8.786720037E-1,3.342305660E0,1.047343540E1,1.102886761E1
1.672091452E1,-6.368576288E-1,2.606088638E0,9.979032516E0,1.033336226E1
1.673095435E1,2.932897210E-1,2.890998602E0,9.185355186E0,9.634035586E0
1.674163576E1,-7.098808289E-1,2.487575531E0,9.343372345E0,9.694873366E0
1.675128947E1,-1.915361285E-1,2.658761024E0,9.780313492E0,1.013707198E1
1.676113432E1,-1.352723986E-1,3.153163671E0,9.157821655E0,9.686404763E0
1.677100425E1,-2.166752517E-1,2.986766577E0,8.862137794E0,9.354421898E0
1.678103571E1,-4.058171809E-1,2.798821688E0,9.433155060E0,9.847969578E0
1.679096694E1,2.334346622E-1,2.755726099E0,1.003050804E1,1.040478782E1
1.680103756E1,-4.129997790E-1,3.560178041E0,9.761159897E0,1.039834982E1
1.681097487E1,-8.738836050E-1,2.170343876E0,9.866505623E0,1.014011826E1
1.682094402E1,2.118868530E-1,3.264493942E0,1.062546730E1,1.111766037E1
1.683092610E1,-3.184288144E-1,2.835932016E0,9.895236015E0,1.029852432E1
1.684096664E1,-2.633621916E-2,2.482787132E0,1.005564690E1,1.035765225E1
1.685092641E1,2.394201607E-2,2.667140722E0,8.862137794E0,9.254820319E0
1.686095179E1,8.379706182E-3,3.062183857E0,9.848548889E0,1.031362959E1
1.687095248E1,-2.035071403E-1,2.928108692E0,9.719262123E0,1.015279724E1
1.688099883E1,1.077390742E-2,2.651578426E0,8.886079788E0,9.273262545E0
1.689096450E1,-4.094084799E-1,2.838326216E0,9.125499725E0,9.565482541E0
1.690111334E1,-3.878606856E-1,2.919728994E0,9.767146111E0,1.020158794E1
